time,x,y,z,vx,vy,vz,ax,ay,az,jx,jy,jz,sx,sy,sz
0.000000,-1.556879,-2.001903,1.494345,-0.011633,0.004630,-0.006978,0.072752,0.025115,-0.004778,1.251281,0.151310,-0.137157,16.913942,0.561213,-2.044874
0.050000,-1.557460,-2.001671,1.493996,-0.007995,0.005886,-0.007216,0.135316,0.032680,-0.011636,2.096979,0.179370,-0.239400,23.452631,1.929691,-2.528555
0.100000,-1.557678,-2.001314,1.493623,0.001899,0.007898,-0.008141,0.282449,0.043052,-0.028718,3.596545,0.344279,-0.390012,26.988111,5.666699,-2.110573
0.150000,-1.557271,-2.000881,1.493182,0.020250,0.010191,-0.010088,0.494970,0.067108,-0.050637,4.795790,0.746040,-0.450458,17.937134,7.811388,-0.577298
0.200000,-1.555653,-2.000295,1.492614,0.051396,0.014609,-0.013205,0.762028,0.117656,-0.073764,5.390258,1.125418,-0.447742,4.231099,5.429009,0.469568
0.250000,-1.552131,-1.999421,1.491861,0.096452,0.021956,-0.017465,1.033996,0.179650,-0.095411,5.218900,1.288941,-0.403501,-7.577511,2.364848,1.118260
0.300000,-1.546008,-1.998099,1.490868,0.154795,0.032574,-0.022746,1.283918,0.246550,-0.114114,4.632507,1.361902,-0.335916,-13.892766,1.135777,1.512291
0.350000,-1.536651,-1.996163,1.489587,0.224844,0.046611,-0.028876,1.497247,0.315840,-0.129003,3.829623,1.402519,-0.252272,-16.991520,0.736763,1.828765
0.400000,-1.523524,-1.993438,1.487980,0.304520,0.064158,-0.035646,1.666881,0.386802,-0.139341,2.933355,1.435579,-0.153039,-18.041386,0.664812,2.154769
0.450000,-1.506199,-1.989747,1.486022,0.391532,0.085292,-0.042810,1.790582,0.459398,-0.144307,2.025484,1.469000,-0.036795,-17.718135,0.663890,2.486633
0.500000,-1.484370,-1.984909,1.483699,0.483578,0.110098,-0.050077,1.869429,0.533702,-0.143020,1.161541,1.501968,0.095624,-16.477550,0.600313,2.755186
0.550000,-1.457842,-1.978738,1.481014,0.578475,0.138662,-0.057112,1.906736,0.609595,-0.134744,0.377729,1.529031,0.238724,-14.669233,0.403604,2.864016
0.600000,-1.426523,-1.971043,1.477988,0.674252,0.171057,-0.063551,1.907202,0.686605,-0.119148,-0.305382,1.542328,0.382025,-12.579494,0.039238,2.727922
0.650000,-1.390416,-1.961632,1.474659,0.769195,0.207322,-0.069027,1.876198,0.763828,-0.096542,-0.880220,1.532955,0.511516,-10.443388,-0.503795,2.302101
0.700000,-1.349603,-1.950311,1.471085,0.861872,0.247440,-0.073205,1.819180,0.839901,-0.067997,-1.349721,1.491949,0.612236,-8.444696,-1.219023,1.597166
0.750000,-1.304229,-1.936888,1.467339,0.951113,0.291312,-0.075827,1.741226,0.913022,-0.035318,-1.724690,1.411053,0.671233,-6.713143,-2.085985,0.679403
0.800000,-1.254492,-1.921179,1.463503,1.035994,0.338742,-0.076737,1.646711,0.981006,-0.000873,-2.021035,1.283350,0.680176,-5.323633,-3.072684,-0.341132
0.850000,-1.200630,-1.903014,1.459665,1.115785,0.389413,-0.075914,1.539122,1.041357,0.032699,-2.257053,1.103784,0.637119,-4.299613,-4.137363,-1.330258
0.900000,-1.142914,-1.882238,1.455911,1.189906,0.442878,-0.073467,1.421006,1.091384,0.062839,-2.450996,0.869614,0.547150,-3.620822,-5.229638,-2.152277
0.950000,-1.081639,-1.858726,1.452318,1.257885,0.498551,-0.069630,1.294023,1.128319,0.087414,-2.619135,0.580821,0.421892,-3.234269,-6.291085,-2.691409
1.000000,-1.017125,-1.832383,1.448948,1.319309,0.555710,-0.064726,1.159092,1.149466,0.105028,-2.774423,0.240505,0.278009,-3.066446,-7.255779,-2.869075
1.050000,-0.949708,-1.803155,1.445845,1.373794,0.613498,-0.059127,1.016580,1.152369,0.115215,-2.925780,-0.144757,0.134984,-3.034914,-8.051605,-2.655396
1.100000,-0.879746,-1.771033,1.443035,1.420967,0.670947,-0.053204,0.866514,1.134991,0.118526,-3.077915,-0.564655,0.012470,-3.057906,-8.603296,-2.074225
1.150000,-0.807612,-1.736060,1.440525,1.460446,0.726997,-0.047275,0.708789,1.095904,0.116462,-3.231570,-1.005087,-0.072438,-3.061296,-8.837930,-1.201588
1.200000,-0.733701,-1.698334,1.438308,1.491846,0.780537,-0.041558,0.543357,1.034482,0.111282,-3.384044,-1.448448,-0.107689,-2.983231,-8.693123,-0.157621
1.250000,-0.658427,-1.658007,1.436369,1.514782,0.830445,-0.036146,0.370385,0.951059,0.105693,-3.529893,-1.874399,-0.088200,-2.777297,-8.127637,0.907664
1.300000,-0.582223,-1.615289,1.434693,1.528884,0.875643,-0.030989,0.190368,0.847042,0.102462,-3.661774,-2.261212,-0.016923,-2.414706,-7.133380,1.833963
1.350000,-0.505539,-1.570442,1.433270,1.533818,0.915149,-0.025900,0.004207,0.724938,0.104001,-3.771364,-2.587737,0.095196,-1.885344,-5.741806,2.473487
1.400000,-0.428841,-1.523774,1.432103,1.529305,0.948137,-0.020589,-0.186769,0.588268,0.111982,-3.850308,-2.835393,0.230426,-1.196997,-4.018848,2.713195
1.450000,-0.352608,-1.475629,1.431211,1.515141,0.973976,-0.014702,-0.380824,0.441399,0.127044,-3.891064,-2.989622,0.366515,-0.371024,-2.060419,2.491923
1.500000,-0.277327,-1.426376,1.430633,1.491222,0.992277,-0.007884,-0.575875,0.289306,0.148633,-3.887411,-3.041435,0.479618,0.565469,0.012271,1.809506
1.550000,-0.203486,-1.376401,1.430423,1.457554,1.002907,0.000161,-0.769565,0.137255,0.175006,-3.834517,-2.988395,0.547466,1.585828,2.077873,0.727680
1.600000,-0.131572,-1.326086,1.430649,1.414266,1.006002,0.009616,-0.959327,-0.009533,0.203380,-3.728828,-2.833647,0.552386,2.664938,4.041740,-0.636551
1.650000,-0.062059,-1.275801,1.431385,1.361621,1.001954,0.020499,-1.142447,-0.146110,0.230244,-3.568023,-2.584221,0.483811,3.777945,5.837398,-2.124498
1.700000,0.004591,-1.225890,1.432699,1.300021,0.991391,0.032641,-1.316129,-0.267956,0.251761,-3.351033,-2.249907,0.339936,4.898954,7.419452,-3.554756
1.750000,0.067943,-1.176662,1.434649,1.230008,0.975158,0.045675,-1.477551,-0.371100,0.264238,-3.078128,-1.842276,0.128335,5.999355,8.760116,-4.745110
1.800000,0.127591,-1.128375,1.437267,1.152266,0.954281,0.059064,-1.623942,-0.452183,0.264595,-2.751098,-1.373896,-0.134575,7.046260,9.841297,-5.534827
1.850000,0.183169,-1.081234,1.440555,1.067614,0.929940,0.072135,-1.752661,-0.508490,0.250780,-2.373502,-0.858146,-0.425148,8.002224,10.643374,-5.804857
1.900000,0.234353,-1.035381,1.444480,0.977000,0.903432,0.084142,-1.861292,-0.537998,0.222080,-1.950875,-0.309558,-0.715060,8.826706,11.136661,-5.493707
1.950000,0.280869,-0.990890,1.448969,0.881485,0.876140,0.094343,-1.947748,-0.539446,0.179274,-1.490831,0.255520,-0.974518,9.479320,11.278553,-4.607147
2.000000,0.322501,-0.947767,1.453914,0.782225,0.849488,0.102070,-2.010375,-0.512446,0.124628,-1.002943,0.818297,-1.175775,9.924969,11.017848,-3.220332
2.050000,0.359092,-0.905942,1.459176,0.680448,0.824895,0.106806,-2.048042,-0.457616,0.061697,-0.498334,1.357305,-1.296551,10.140296,10.305891,-1.471451
2.100000,0.390546,-0.865277,1.464595,0.577421,0.803726,0.108240,-2.060208,-0.376715,-0.005027,0.011086,1.848886,-1.322920,10.119101,9.112065,0.453181
2.150000,0.416834,-0.825569,1.470000,0.474427,0.787224,0.106303,-2.046934,-0.272728,-0.070595,0.513576,2.268511,-1.251233,9.873893,7.439688,2.341536
2.200000,0.437989,-0.786555,1.475225,0.372728,0.776453,0.101180,-2.008851,-0.149864,-0.130150,0.998475,2.592855,-1.088766,9.434762,5.337929,3.983356
2.250000,0.454107,-0.747924,1.480118,0.273542,0.772237,0.093288,-1.947086,-0.013442,-0.179472,1.457052,2.802304,-0.852898,8.847704,2.906444,5.198897
2.300000,0.465343,-0.709331,1.484554,0.178019,0.775109,0.083233,-1.863146,0.130366,-0.215440,1.883246,2.883499,-0.568877,8.167676,0.291330,5.864259
2.350000,0.471909,-0.670413,1.488442,0.087227,0.785274,0.071744,-1.758762,0.274908,-0.236360,2.273820,2.831437,-0.266472,7.447735,-2.328916,5.928590
2.400000,0.474066,-0.630804,1.491729,0.002143,0.802600,0.059597,-1.635764,0.413510,-0.242087,2.628019,2.650608,0.023982,6.734989,-4.767137,5.419614
2.450000,0.472123,-0.590153,1.494401,-0.076349,0.826625,0.047535,-1.495960,0.539969,-0.233961,2.947319,2.354724,0.275489,6.067219,-6.855148,4.435947
2.500000,0.466431,-0.548141,1.496482,-0.147453,0.856597,0.036201,-1.341032,0.648982,-0.214539,3.234741,1.965093,0.467577,5.460500,-8.467623,3.127405
2.550000,0.457378,-0.504493,1.498021,-0.210452,0.891523,0.026081,-1.172486,0.736478,-0.187204,3.493369,1.507961,0.588230,4.901216,-9.536642,1.667628
2.600000,0.445386,-0.458989,1.499090,-0.264702,0.930244,0.017480,-0.991695,0.799779,-0.155716,3.724863,1.011429,0.634340,4.351798,-10.053254,0.225681
2.650000,0.430907,-0.411469,1.499769,-0.309622,0.971501,0.010510,-0.799999,0.837621,-0.123770,3.928548,0.502636,0.610798,3.761712,-10.057354,-1.056789
2.700000,0.414423,-0.361839,1.500141,-0.344702,1.014006,0.005103,-0.598840,0.850042,-0.094636,4.101034,0.005693,0.528661,3.078361,-9.622016,-2.078992
2.750000,0.396437,-0.310068,1.500280,-0.369506,1.056505,0.001046,-0.389896,0.838190,-0.070904,4.236385,-0.459566,0.402899,2.257952,-8.837662,-2.784590
2.800000,0.377473,-0.256188,1.500246,-0.383691,1.097825,-0.001987,-0.175202,0.804086,-0.054346,4.326829,-0.878073,0.250202,1.274140,-7.799020,-3.157441
2.850000,0.358068,-0.200286,1.500081,-0.387026,1.136914,-0.004388,0.042787,0.750383,-0.045883,4.363799,-1.239468,0.087155,0.123988,-6.595426,-3.212539
2.900000,0.338770,-0.142497,1.499807,-0.379413,1.172864,-0.006575,0.261178,0.680139,-0.045630,4.339228,-1.537616,-0.071052,-1.167651,-5.304015,-2.985257
2.950000,0.320127,-0.082999,1.499424,-0.360908,1.204928,-0.008951,0.476710,0.596621,-0.052989,4.247033,-1.769869,-0.211371,-2.553319,-3.988637,-2.521647
3.000000,0.302679,-0.022004,1.498912,-0.331742,1.232526,-0.011874,0.685882,0.503152,-0.066767,4.083896,-1.936479,-0.323217,-3.977486,-2.703118,-1.871388
3.050000,0.286953,0.040253,1.498236,-0.292320,1.255243,-0.015628,0.885099,0.402973,-0.085310,3.849285,-2.040181,-0.398510,-5.381224,-1.490747,-1.083469
3.100000,0.273447,0.103520,1.497349,-0.243232,1.272823,-0.020405,1.070810,0.299134,-0.106618,3.545774,-2.085554,-0.431564,-6.699544,-0.382403,-0.204522
3.150000,0.262630,0.167536,1.496196,-0.185239,1.285156,-0.026290,1.239677,0.194418,-0.128467,3.179330,-2.078421,-0.418962,-7.868605,0.600114,0.720442
3.200000,0.254923,0.232036,1.494720,-0.119264,1.292265,-0.033252,1.388743,0.091292,-0.148515,2.758913,-2.025543,-0.359520,-8.835075,1.440745,1.645961
3.250000,0.250703,0.296762,1.492870,-0.046365,1.294286,-0.041141,1.515568,-0.008136,-0.164419,2.295823,-1.934347,-0.254366,-9.558619,2.129343,2.524014
3.300000,0.250287,0.361465,1.490606,0.032293,1.291451,-0.049694,1.618325,-0.102143,-0.173951,1.803051,-1.812608,-0.107118,-10.013042,2.662125,3.302794
3.350000,0.253932,0.425907,1.487901,0.115468,1.284071,-0.058537,1.695873,-0.189397,-0.175130,1.294519,-1.668134,0.075914,-10.188185,3.041456,3.927098
3.400000,0.261834,0.489872,1.484752,0.201880,1.272512,-0.067207,1.747777,-0.268956,-0.166360,0.784233,-1.508463,0.285592,-10.090746,3.275616,4.340761
3.450000,0.274120,0.553158,1.481180,0.290246,1.257176,-0.075173,1.774296,-0.340244,-0.146571,0.285444,-1.340573,0.509990,-9.743456,3.378429,4.491108
3.500000,0.290858,0.615589,1.477235,0.379310,1.238487,-0.081864,1.776322,-0.403014,-0.115361,-0.190113,-1.170620,0.734702,-9.182488,3.368582,4.334975
3.550000,0.312051,0.677007,1.472994,0.467878,1.216874,-0.086709,1.755285,-0.457305,-0.073101,-0.632805,-1.003714,0.943487,-8.453153,3.268557,3.845492
3.600000,0.337646,0.737277,1.468564,0.554838,1.192757,-0.089174,1.713041,-0.503385,-0.021012,-1.035428,-0.843764,1.119252,-7.604316,3.103148,3.018600
3.650000,0.367535,0.796283,1.464077,0.639182,1.166536,-0.088810,1.651742,-0.541682,0.038824,-1.393236,-0.693400,1.245347,-6.682368,2.897579,1.878252
3.700000,0.401564,0.853930,1.459683,0.720012,1.138588,-0.085292,1.573718,-0.572725,0.103523,-1.703665,-0.554006,1.307077,-5.725847,2.675250,0.479339
3.750000,0.439536,0.910142,1.455547,0.796554,1.109263,-0.078458,1.481376,-0.597083,0.169532,-1.965821,-0.425875,1.293281,-4.762188,2.455459,-1.092399
3.800000,0.481220,0.964857,1.451837,0.868150,1.078880,-0.068338,1.377136,-0.615312,0.232851,-2.179884,-0.308460,1.197837,-3.806774,2.250105,-2.723878
3.850000,0.526351,1.018030,1.448714,0.934267,1.047732,-0.055173,1.263387,-0.627929,0.289315,-2.346498,-0.200864,1.020893,-2.864514,2.055925,-4.281792
3.900000,0.574646,1.069630,1.446320,0.994489,1.016087,-0.039407,1.142486,-0.635399,0.334940,-2.466335,-0.102868,0.769658,-1.940231,1.854332,-5.623813
3.950000,0.625800,1.119638,1.444773,1.048516,0.984192,-0.021679,1.016754,-0.638215,0.366281,-2.540522,-0.015431,0.458512,-1.052959,1.636569,-6.614896
4.000000,0.679498,1.168049,1.444152,1.096164,0.952266,-0.002779,0.888434,-0.636942,0.380791,-2.571631,0.060789,0.108168,-0.225155,1.413786,-7.147231
4.050000,0.735417,1.214865,1.444495,1.137359,0.920498,0.016401,0.759591,-0.632136,0.377098,-2.563037,0.125948,-0.256211,0.544695,1.181122,-7.157887
4.100000,0.793234,1.260099,1.445792,1.172123,0.889052,0.034931,0.632130,-0.624347,0.355170,-2.517162,0.178901,-0.607621,1.269172,0.914574,-6.637735
4.150000,0.852629,1.303770,1.447988,1.200572,0.858063,0.051918,0.507875,-0.614246,0.316336,-2.436120,0.217405,-0.919985,1.932101,0.618098,-5.630272
4.200000,0.913291,1.345905,1.450984,1.222911,0.827628,0.066565,0.388518,-0.602607,0.263172,-2.323951,0.240711,-1.170648,2.490260,0.322476,-4.223767
4.250000,0.974920,1.386533,1.454645,1.239424,0.797803,0.078235,0.275479,-0.590175,0.199271,-2.187094,0.249653,-1.342362,2.902301,0.046206,-2.540493
4.300000,1.037233,1.425685,1.458807,1.250459,0.768610,0.086492,0.169808,-0.577641,0.128935,-2.033721,0.245332,-1.424697,3.137116,-0.206019,-0.724406
4.350000,1.099966,1.463394,1.463294,1.256405,0.740038,0.091128,0.072107,-0.565642,0.056801,-1.873382,0.229051,-1.414802,3.173701,-0.427139,1.072486
4.400000,1.162874,1.499689,1.467920,1.257669,0.712046,0.092172,-0.017530,-0.554736,-0.012545,-1.716351,0.202618,-1.317448,3.009019,-0.606633,2.704292
4.450000,1.225733,1.534599,1.472511,1.254652,0.684565,0.089874,-0.099528,-0.545380,-0.074943,-1.572480,0.168387,-1.144373,2.664200,-0.734218,4.044701
4.500000,1.288339,1.568146,1.476908,1.247717,0.657508,0.084678,-0.174778,-0.537898,-0.126982,-1.449931,0.129196,-0.912978,2.184096,-0.801729,4.998392
4.550000,1.350505,1.600349,1.480979,1.237174,0.630775,0.077176,-0.244521,-0.532461,-0.166241,-1.354071,0.088214,-0.644534,1.632037,-0.804704,5.509060
4.600000,1.412056,1.631223,1.484625,1.223265,0.604262,0.068053,-0.310185,-0.529076,-0.191436,-1.286728,0.048726,-0.362072,1.081192,-0.743467,5.563068
4.650000,1.472831,1.660776,1.487784,1.206155,0.577867,0.058032,-0.373194,-0.527588,-0.202448,-1.245951,0.013868,-0.088227,0.604347,-0.623489,5.188394
4.700000,1.532672,1.689010,1.490428,1.185945,0.551503,0.047809,-0.434780,-0.527689,-0.200258,-1.226293,-0.013623,0.156767,0.264104,-0.454960,4.449173
4.750000,1.591426,1.715926,1.492565,1.162677,0.525098,0.038006,-0.495823,-0.528950,-0.186772,-1.219541,-0.031628,0.356690,0.105198,-0.251662,3.436758
4.800000,1.648940,1.741520,1.494229,1.136363,0.498608,0.029131,-0.556734,-0.530852,-0.164589,-1.215773,-0.038789,0.500443,0.150052,-0.029369,2.258651
4.850000,1.705062,1.765787,1.495478,1.107004,0.472013,0.021547,-0.617400,-0.532829,-0.136727,-1.204536,-0.034565,0.582556,0.397971,0.195905,1.026845
4.900000,1.759640,1.788721,1.496384,1.074623,0.445325,0.015459,-0.677188,-0.534309,-0.106334,-1.175976,-0.019199,0.603127,0.827628,0.409538,-0.152993
4.950000,1.812524,1.810319,1.497024,1.039285,0.418582,0.010914,-0.734998,-0.534749,-0.076415,-1.121773,0.006389,0.567256,1.401971,0.599563,-1.190397
5.000000,1.863569,1.830579,1.497475,1.001123,0.391850,0.007817,-0.789365,-0.533670,-0.049608,-1.035779,0.040757,0.484088,2.074358,0.757432,-2.016353
5.050000,1.912636,1.849504,1.497806,0.960349,0.365215,0.005953,-0.838576,-0.530673,-0.028006,-0.914337,0.082132,0.365621,2.794686,0.878260,-2.586743
5.100000,1.959603,1.867101,1.498070,0.917265,0.338783,0.005017,-0.880799,-0.525457,-0.013046,-0.756310,0.128583,0.225413,3.514521,0.960570,-2.883103
5.150000,2.004363,1.883382,1.498307,0.872269,0.312670,0.004648,-0.914207,-0.517815,-0.005465,-0.562885,0.178189,0.077311,4.190583,1.005655,-2.911139
5.200000,2.046830,1.898368,1.498535,0.825845,0.287001,0.004470,-0.937087,-0.507638,-0.005315,-0.337252,0.229149,-0.065701,4.786307,1.016700,-2.697500
5.250000,2.086947,1.912083,1.498754,0.778560,0.261906,0.004117,-0.947932,-0.494900,-0.012035,-0.084254,0.279859,-0.192439,5.271566,0.997780,-2.285347
5.300000,2.124686,1.924559,1.498947,0.731052,0.237511,0.003267,-0.945513,-0.479652,-0.024559,0.189905,0.328927,-0.294235,5.621049,0.952880,-1.729233
5.350000,2.160053,1.935834,1.499081,0.684009,0.213941,0.001661,-0.928941,-0.462007,-0.041458,0.477851,0.375147,-0.365363,5.811929,0.885046,-1.089744
5.400000,2.193087,1.945953,1.499113,0.638157,0.191311,-0.000879,-0.897728,-0.442137,-0.061095,0.771098,0.417432,-0.403210,5.821414,0.795751,-0.428264
5.450000,2.223868,1.954965,1.498993,0.594236,0.169727,-0.004448,-0.851832,-0.420264,-0.081779,1.059992,0.454722,-0.408189,5.624761,0.684503,0.197791
5.500000,2.252511,1.962925,1.498668,0.552974,0.149284,-0.009057,-0.791728,-0.396665,-0.101914,1.333574,0.485882,-0.383430,5.194119,0.548752,0.738958
5.550000,2.279166,1.969893,1.498087,0.515063,0.130061,-0.014640,-0.718474,-0.371676,-0.120122,1.579404,0.509597,-0.334293,4.498380,0.384071,1.156648
5.600000,2.304017,1.975931,1.497204,0.481127,0.112117,-0.021069,-0.633788,-0.345705,-0.135343,1.783412,0.524289,-0.267766,3.503918,0.184620,1.424837
5.650000,2.327278,1.981105,1.495980,0.451685,0.095490,-0.028174,-0.540133,-0.319247,-0.146899,1.929796,0.528059,-0.191810,2.175871,-0.056114,1.530389
5.700000,2.349186,1.985480,1.494387,0.427114,0.080192,-0.035759,-0.440808,-0.292899,-0.154524,2.000999,0.518678,-0.114727,0.479348,-0.344290,1.472059
5.750000,2.369990,1.989124,1.492405,0.407604,0.066200,-0.043627,-0.340033,-0.267379,-0.158371,1.977730,0.493630,-0.044604,-1.620259,-0.684282,1.258331
5.800000,2.389946,1.992100,1.490024,0.393110,0.053454,-0.051596,-0.243035,-0.243536,-0.158985,1.838973,0.450249,0.011106,-4.159043,-1.076590,0.904391
5.850000,2.409301,1.994469,1.487245,0.383300,0.041846,-0.059525,-0.156136,-0.222354,-0.157261,1.561826,0.385971,0.045835,-6.531138,3.093663,4.187871
5.900000,2.428276,1.996285,1.484072,0.377497,0.031218,-0.067322,-0.086853,-0.204939,-0.154401,1.185859,0.759616,0.429893,-8.679741,7.087472,7.412961
5.950000,2.447051,1.997591,1.480513,0.374615,0.021353,-0.074965,-0.037550,-0.146393,-0.114271,0.693852,1.094718,0.787131,-7.842053,2.588938,3.417761
6.000000,2.465738,1.998420,1.476575,0.373742,0.016579,-0.078750,-0.017467,-0.095467,-0.075688,0.401654,1.018509,0.771670,-5.843969,-1.524178,-0.309237
