time,x,y,z,vx,vy,vz,ax,ay,az,jx,jy,jz,sx,sy,sz
0.000000,-2.213207,-1.625046,1.491426,-0.016436,0.001931,-0.006906,0.271923,0.158286,-0.002051,-6.914785,-3.852422,0.031724,190.967852,87.492779,0.810294
0.010000,-2.213358,-1.625019,1.491357,-0.014032,0.003336,-0.006925,0.211979,0.123982,-0.001693,-5.107558,-3.023540,0.039723,170.729650,78.394125,0.786336
0.020000,-2.213489,-1.624980,1.491287,-0.012140,0.004437,-0.006940,0.169122,0.097523,-0.001257,-3.495251,-2.282373,0.047391,151.973642,69.945413,0.744494
0.030000,-2.213602,-1.624931,1.491218,-0.010599,0.005310,-0.006950,0.141473,0.078063,-0.000747,-2.063348,-1.622552,0.054557,134.638849,62.120537,0.686121
0.040000,-2.213702,-1.624874,1.491148,-0.009266,0.006019,-0.006954,0.127300,0.064821,-0.000168,-0.797940,-1.037970,0.061063,118.664289,54.893390,0.612569
0.050000,-2.213788,-1.624811,1.491079,-0.008013,0.006624,-0.006953,0.125004,0.057073,0.000471,0.314269,-0.522779,0.066763,103.988982,48.237865,0.525192
0.060000,-2.213862,-1.624742,1.491009,-0.006731,0.007177,-0.006945,0.133117,0.054153,0.001164,1.285967,-0.071394,0.071525,90.551947,42.127857,0.425342
0.070000,-2.213922,-1.624668,1.490940,-0.005321,0.007721,-0.006929,0.150295,0.055450,0.001898,2.129232,0.321510,0.075233,78.292204,36.537259,0.314372
0.080000,-2.213967,-1.624588,1.490871,-0.003699,0.008298,-0.006907,0.175312,0.060405,0.002664,2.855532,0.660995,0.077780,67.148772,31.439965,0.193633
0.090000,-2.213995,-1.624501,1.490802,-0.001792,0.008940,-0.006876,0.207052,0.068508,0.003450,3.475725,0.951866,0.079077,57.060670,26.809867,0.064480
0.100000,-2.214002,-1.624408,1.490733,0.000461,0.009677,-0.006838,0.244507,0.079295,0.004242,4.000060,1.198663,0.079046,47.966919,22.620861,-0.071735
0.110000,-2.213985,-1.624308,1.490665,0.003114,0.010533,-0.006791,0.286766,0.092349,0.005026,4.438175,1.405667,0.077623,39.806536,18.846838,-0.213660
0.120000,-2.213938,-1.624197,1.490597,0.006210,0.011530,-0.006737,0.333013,0.107290,0.005789,4.799099,1.576896,0.074758,32.518541,15.461694,-0.359941
0.130000,-2.213859,-1.624076,1.490530,0.009785,0.012684,-0.006676,0.382519,0.123780,0.006516,5.091250,1.716110,0.070415,26.041955,12.439320,-0.509227
0.140000,-2.213741,-1.623943,1.490464,0.013869,0.014010,-0.006607,0.434635,0.141517,0.007193,5.322439,1.826805,0.064568,20.315796,9.753612,-0.660164
0.150000,-2.213580,-1.623796,1.490398,0.018485,0.015518,-0.006532,0.488788,0.160232,0.007803,5.499865,1.912217,0.057210,15.279083,7.378462,-0.811400
0.160000,-2.213369,-1.623632,1.490333,0.023650,0.017217,-0.006451,0.544475,0.179687,0.008332,5.630116,1.975322,0.048344,10.870837,5.287764,-0.961582
0.170000,-2.213105,-1.623451,1.490269,0.029378,0.019114,-0.006366,0.601253,0.199673,0.008765,5.719173,2.018834,0.037987,7.030076,3.455412,-1.109357
0.180000,-2.212780,-1.623249,1.490206,0.035677,0.021212,-0.006276,0.658739,0.220006,0.009087,5.772406,2.045205,0.026169,3.695820,1.855299,-1.253373
0.190000,-2.212389,-1.623026,1.490144,0.042554,0.023514,-0.006184,0.716598,0.240527,0.009283,5.794574,2.056627,0.012936,0.807088,0.461319,-1.392277
0.200000,-2.211927,-1.622778,1.490082,0.050010,0.026022,-0.006091,0.774541,0.261095,0.009341,5.789829,2.055031,-0.001655,-1.697101,-0.752635,-1.524716
0.210000,-2.211387,-1.622505,1.490022,0.058041,0.028735,-0.005998,0.832430,0.281635,0.009247,5.772173,2.046259,-0.017460,-4.141981,-1.918031,-1.651144
0.220000,-2.210764,-1.622203,1.489962,0.066653,0.031653,-0.005907,0.889908,0.301984,0.008988,5.719770,2.021843,-0.034566,-6.291921,-2.942713,-1.768181
0.230000,-2.210052,-1.621871,1.489904,0.075837,0.034773,-0.005819,0.946759,0.322040,0.008552,5.647223,1.987829,-0.052788,-8.175544,-3.839884,-1.874252
0.240000,-2.209246,-1.621507,1.489846,0.085586,0.038093,-0.005736,1.002794,0.341713,0.007928,5.557051,1.945426,-0.072009,-9.821473,-4.622750,-1.967784
0.250000,-2.208339,-1.621108,1.489789,0.095890,0.041606,-0.005661,1.057848,0.360924,0.007109,5.451490,1.895711,-0.092096,-11.258331,-5.304515,-2.047203
0.260000,-2.207326,-1.620674,1.489733,0.106737,0.045309,-0.005595,1.111830,0.379629,0.006082,5.337245,1.841718,-0.113087,-12.634948,-5.951149,-2.106219
0.270000,-2.206202,-1.620202,1.489677,0.118120,0.049196,-0.005540,1.164550,0.397738,0.004845,5.204713,1.779314,-0.134375,-13.845020,-6.516631,-2.148551
0.280000,-2.204962,-1.619689,1.489622,0.130024,0.053261,-0.005499,1.215887,0.415197,0.003393,5.060854,1.711634,-0.155999,-14.902452,-7.007705,-2.173203
0.290000,-2.203600,-1.619136,1.489567,0.142433,0.057498,-0.005473,1.265734,0.431956,0.001725,4.907126,1.639386,-0.177777,-15.821145,-7.431115,-2.179178
0.300000,-2.202112,-1.618539,1.489512,0.155333,0.061898,-0.005465,1.314001,0.447972,-0.000162,4.744847,1.563214,-0.199517,-16.615004,-7.793605,-2.165480
0.310000,-2.200492,-1.617897,1.489458,0.168707,0.066454,-0.005477,1.360630,0.463220,-0.002268,4.577341,1.484730,-0.221347,-17.352118,-8.128078,-2.122793
0.320000,-2.198736,-1.617209,1.489403,0.182539,0.071159,-0.005511,1.405525,0.477656,-0.004587,4.400569,1.401989,-0.242276,-17.985570,-8.411916,-2.059458
0.330000,-2.196839,-1.616474,1.489347,0.196812,0.076004,-0.005569,1.448622,0.491251,-0.007112,4.217951,1.316649,-0.262468,-18.522629,-8.648659,-1.975498
0.340000,-2.194798,-1.615689,1.489291,0.211506,0.080981,-0.005654,1.489868,0.503982,-0.009833,4.030414,1.229161,-0.281717,-18.970564,-8.841849,-1.870935
0.350000,-2.192608,-1.614854,1.489234,0.226603,0.086081,-0.005766,1.529217,0.515829,-0.012742,3.838812,1.139945,-0.299818,-19.336643,-8.995027,-1.745792
0.360000,-2.190265,-1.613967,1.489176,0.242083,0.091295,-0.005909,1.566643,0.526782,-0.015829,3.644892,1.049888,-0.316906,-19.652446,-9.124495,-1.591458
0.370000,-2.187765,-1.613027,1.489116,0.257929,0.096614,-0.006083,1.602105,0.536823,-0.019075,3.447083,0.958140,-0.331967,-19.897954,-9.219470,-1.417646
0.380000,-2.185105,-1.612034,1.489054,0.274119,0.102028,-0.006291,1.635578,0.545942,-0.022462,3.247153,0.865607,-0.345198,-20.077460,-9.281930,-1.225433
0.390000,-2.182282,-1.610986,1.488990,0.290633,0.107529,-0.006533,1.667043,0.554133,-0.025972,3.045740,0.772603,-0.356418,-20.195254,-9.313854,-1.015898
0.400000,-2.179291,-1.609883,1.488923,0.307453,0.113108,-0.006811,1.696490,0.561394,-0.029583,2.843439,0.679425,-0.365462,-20.255629,-9.317218,-0.790122
0.410000,-2.176132,-1.608724,1.488854,0.324556,0.118754,-0.007125,1.723916,0.567725,-0.033276,2.641234,0.586584,-0.372423,-20.273732,-9.299967,-0.542789
0.420000,-2.172799,-1.607508,1.488781,0.341924,0.124459,-0.007476,1.749315,0.573126,-0.037023,2.438616,0.493776,-0.376558,-20.241671,-9.257383,-0.282154
0.430000,-2.169292,-1.606235,1.488704,0.359536,0.130214,-0.007865,1.772690,0.577602,-0.040798,2.236558,0.401516,-0.378028,-20.162408,-9.190714,-0.010081
0.440000,-2.165608,-1.604904,1.488623,0.377371,0.136008,-0.008292,1.794049,0.581159,-0.044575,2.035516,0.310038,-0.376728,-20.038905,-9.101207,0.271569
0.450000,-2.161744,-1.603514,1.488538,0.395410,0.141834,-0.008757,1.813405,0.583806,-0.048323,1.835917,0.219564,-0.372571,-19.874124,-8.990111,0.560934
0.460000,-2.157699,-1.602067,1.488448,0.413633,0.147681,-0.009259,1.830776,0.585556,-0.052017,1.638352,0.130402,-0.365599,-19.675859,-8.861154,0.858910
0.470000,-2.153471,-1.600561,1.488353,0.432019,0.153542,-0.009797,1.846179,0.586419,-0.055625,1.442736,0.042516,-0.355504,-19.441651,-8.712799,1.160539
0.480000,-2.149058,-1.598996,1.488252,0.450550,0.159407,-0.010371,1.859639,0.586411,-0.059117,1.249631,-0.043793,-0.342383,-19.173871,-8.545990,1.463621
0.490000,-2.144460,-1.597373,1.488145,0.469205,0.165267,-0.010979,1.871181,0.585549,-0.062463,1.059362,-0.128345,-0.326234,-18.874890,-8.361671,1.765958
0.500000,-2.139674,-1.595691,1.488032,0.487967,0.171115,-0.011619,1.880837,0.583851,-0.065632,0.872229,-0.210971,-0.307074,-18.547080,-8.160788,2.065349
0.510000,-2.134700,-1.593950,1.487913,0.506816,0.176941,-0.012291,1.888638,0.581337,-0.068594,0.688600,-0.291479,-0.284899,-18.195122,-7.945038,2.358451
0.520000,-2.129537,-1.592152,1.487786,0.525734,0.182739,-0.012990,1.894621,0.578029,-0.071320,0.508511,-0.369789,-0.259878,-17.818795,-7.714519,2.644347
0.530000,-2.124185,-1.590296,1.487653,0.544702,0.188499,-0.013716,1.898821,0.573949,-0.073782,0.332299,-0.445723,-0.232043,-17.420186,-7.470081,2.920980
0.540000,-2.118643,-1.588382,1.487512,0.563704,0.194215,-0.014465,1.901280,0.569122,-0.075952,0.160175,-0.519147,-0.201496,-17.001383,-7.212576,3.186287
0.550000,-2.112911,-1.586412,1.487363,0.582722,0.199879,-0.015234,1.902039,0.563575,-0.077804,-0.007669,-0.589934,-0.168362,-16.564475,-6.942855,3.438211
0.560000,-2.106989,-1.584385,1.487207,0.601740,0.205485,-0.016020,1.901142,0.557333,-0.079309,-0.170997,-0.657963,-0.132609,-16.113163,-6.661848,3.670281
0.570000,-2.100876,-1.582302,1.487043,0.620740,0.211024,-0.016819,1.898635,0.550425,-0.080448,-0.329813,-0.723132,-0.094816,-15.647724,-6.370319,3.885387
0.580000,-2.094574,-1.580165,1.486871,0.639707,0.216491,-0.017628,1.894562,0.542880,-0.081199,-0.483911,-0.785337,-0.054963,-15.170050,-6.069110,4.082011
0.590000,-2.088082,-1.577973,1.486690,0.658626,0.221880,-0.018442,1.888972,0.534729,-0.081541,-0.633179,-0.844485,-0.013242,-14.682031,-5.759063,4.258632
0.600000,-2.081402,-1.575727,1.486502,0.677482,0.227184,-0.019257,1.881915,0.526001,-0.081458,-0.777524,-0.900492,0.030138,-14.185559,-5.441020,4.413732
0.610000,-2.074533,-1.573429,1.486305,0.696260,0.232398,-0.020070,1.873439,0.516729,-0.080931,-0.916793,-0.953279,0.075212,-13.684431,-5.115894,4.539315
0.620000,-2.067477,-1.571080,1.486101,0.714946,0.237517,-0.020874,1.863596,0.506946,-0.079950,-1.051111,-1.002785,0.121134,-13.178398,-4.784448,4.641130
0.630000,-2.060234,-1.568679,1.485888,0.733527,0.242535,-0.021667,1.852434,0.496685,-0.078505,-1.180350,-1.048949,0.167953,-12.669117,-4.447515,4.718449
0.640000,-2.052807,-1.566229,1.485667,0.751990,0.247449,-0.022443,1.840006,0.485979,-0.076589,-1.304488,-1.091720,0.215419,-12.158243,-4.105929,4.770547
0.650000,-2.045195,-1.563731,1.485439,0.770323,0.252253,-0.023197,1.826361,0.474862,-0.074196,-1.423515,-1.131055,0.263277,-11.647436,-3.760522,4.796696
0.660000,-2.037401,-1.561185,1.485203,0.788514,0.256945,-0.023925,1.811554,0.463369,-0.071320,-1.537337,-1.166902,0.311546,-11.141003,-3.412590,4.789050
0.670000,-2.029425,-1.558592,1.484961,0.806551,0.261519,-0.024622,1.795632,0.451536,-0.067965,-1.646227,-1.199279,0.359288,-10.637625,-3.062449,4.754874
0.680000,-2.021270,-1.555955,1.484711,0.824423,0.265974,-0.025283,1.778646,0.439396,-0.064136,-1.750104,-1.228146,0.406556,-10.138636,-2.710875,4.694312
0.690000,-2.012937,-1.553273,1.484455,0.842120,0.270306,-0.025903,1.760646,0.426984,-0.059837,-1.849019,-1.253494,0.453087,-9.645366,-2.358645,4.607510
0.700000,-2.004428,-1.550549,1.484193,0.859632,0.274513,-0.026478,1.741682,0.414337,-0.055077,-1.943035,-1.275320,0.498619,-9.159149,-2.006536,4.494611
0.710000,-1.995745,-1.547783,1.483926,0.876951,0.278593,-0.027003,1.721803,0.401490,-0.049866,-2.032096,-1.293589,0.543147,-8.684713,-1.656317,4.349320
0.720000,-1.986890,-1.544977,1.483653,0.894066,0.282543,-0.027474,1.701055,0.388477,-0.044220,-2.116609,-1.308407,0.585809,-8.219578,-1.307652,4.179011
0.730000,-1.977865,-1.542133,1.483376,0.910969,0.286362,-0.027886,1.679486,0.375334,-0.038156,-2.196521,-1.319749,0.626647,-7.764662,-0.961195,3.984620
0.740000,-1.968671,-1.539251,1.483096,0.927653,0.290049,-0.028236,1.657140,0.362094,-0.031694,-2.271939,-1.327640,0.665425,-7.320882,-0.617602,3.767079
0.750000,-1.959312,-1.536332,1.482812,0.944109,0.293603,-0.028519,1.634062,0.348792,-0.024855,-2.342979,-1.332113,0.701915,-6.889155,-0.277529,3.527323
0.760000,-1.949790,-1.533379,1.482526,0.960332,0.297025,-0.028732,1.610296,0.335463,-0.017662,-2.409615,-1.333148,0.736089,-6.474191,0.056941,3.261509
0.770000,-1.940107,-1.530392,1.482238,0.976313,0.300313,-0.028871,1.585883,0.322140,-0.010142,-2.472338,-1.330926,0.767292,-6.072648,0.386756,2.975932
0.780000,-1.930265,-1.527373,1.481949,0.992047,0.303468,-0.028934,1.560863,0.308856,-0.002326,-2.531115,-1.325430,0.795547,-5.684980,0.711434,2.672110
0.790000,-1.920267,-1.524323,1.481659,1.007528,0.306490,-0.028917,1.535273,0.295642,0.005758,-2.586086,-1.316716,0.820679,-5.311638,1.030497,2.351564
0.800000,-1.910115,-1.521244,1.481370,1.022751,0.309381,-0.028818,1.509153,0.282532,0.014077,-2.637397,-1.304841,0.842528,-4.953074,1.343462,2.015812
0.810000,-1.899812,-1.518136,1.481083,1.037710,0.312141,-0.028635,1.482539,0.269557,0.022599,-2.685052,-1.289805,0.861052,-4.613428,1.648252,1.663789
0.820000,-1.889362,-1.515001,1.480798,1.052400,0.314772,-0.028365,1.455463,0.256746,0.031286,-2.729551,-1.271827,0.875879,-4.289013,1.946179,1.299915
0.830000,-1.878765,-1.511841,1.480516,1.066818,0.317277,-0.028008,1.427958,0.244130,0.040104,-2.770883,-1.250905,0.887017,-3.979830,2.236959,0.926023
0.840000,-1.868026,-1.508656,1.480238,1.080958,0.319656,-0.027563,1.400055,0.231737,0.049014,-2.809199,-1.227113,0.894372,-3.685881,2.520307,0.543948
0.850000,-1.857147,-1.505448,1.479965,1.094817,0.321912,-0.027028,1.371784,0.219597,0.057978,-2.844651,-1.200525,0.897874,-3.407166,2.795940,0.155525
0.860000,-1.846131,-1.502219,1.479698,1.108392,0.324049,-0.026403,1.343173,0.207737,0.066959,-2.877274,-1.171164,0.897480,-3.146695,3.062139,-0.237710
0.870000,-1.834980,-1.498968,1.479437,1.121680,0.326068,-0.025689,1.314247,0.196182,0.075915,-2.907500,-1.139245,0.893125,-2.901091,3.320229,-0.633587
0.880000,-1.823698,-1.495698,1.479184,1.134676,0.327973,-0.024885,1.285031,0.184960,0.084808,-2.935344,-1.104787,0.884806,-2.669987,3.570098,-1.030232
0.890000,-1.812288,-1.492409,1.478940,1.147380,0.329768,-0.023993,1.255547,0.174095,0.093598,-2.960947,-1.067871,0.872524,-2.453016,3.811639,-1.425775
0.900000,-1.800752,-1.489103,1.478705,1.159787,0.331457,-0.023014,1.225819,0.163611,0.102245,-2.984450,-1.028582,0.856300,-2.249810,4.044740,-1.818344
0.910000,-1.789093,-1.485780,1.478480,1.171895,0.333042,-0.021949,1.195866,0.153531,0.110710,-3.005910,-0.986966,0.836106,-2.061984,4.268325,-2.204381
0.920000,-1.777315,-1.482442,1.478266,1.183703,0.334529,-0.020800,1.165707,0.143879,0.118954,-3.025644,-0.943201,0.812159,-1.886945,4.483371,-2.583906
0.930000,-1.765420,-1.479090,1.478064,1.195209,0.335921,-0.019571,1.135359,0.134674,0.126941,-3.043689,-0.897328,0.784455,-1.724084,4.689887,-2.955255
0.940000,-1.753412,-1.475724,1.477875,1.206410,0.337224,-0.018262,1.104838,0.125939,0.134631,-3.060164,-0.849432,0.753086,-1.572789,4.887883,-3.316763
0.950000,-1.741293,-1.472346,1.477699,1.217305,0.338441,-0.016879,1.074160,0.117692,0.141991,-3.075181,-0.799598,0.718158,-1.432452,5.077366,-3.666764
0.960000,-1.729066,-1.468955,1.477538,1.227892,0.339579,-0.015424,1.043339,0.109953,0.148982,-3.088815,-0.747899,0.679670,-1.303293,5.258010,-4.000442
0.970000,-1.716736,-1.465554,1.477391,1.238171,0.340642,-0.013901,1.012388,0.102740,0.155573,-3.101242,-0.694451,0.638057,-1.183769,5.430202,-4.319669
0.980000,-1.704304,-1.462143,1.477260,1.248140,0.341636,-0.012314,0.981318,0.096070,0.161732,-3.112520,-0.639323,0.593329,-1.073168,5.593992,-4.623165
0.990000,-1.691774,-1.458722,1.477145,1.257797,0.342565,-0.010668,0.950141,0.089959,0.167430,-3.122733,-0.582599,0.545651,-0.970776,5.749432,-4.909652
1.000000,-1.679149,-1.455292,1.477047,1.267142,0.343437,-0.008967,0.918867,0.084423,0.172636,-3.131960,-0.524362,0.495197,-0.875882,5.896571,-5.177850
1.010000,-1.666432,-1.451853,1.476966,1.276174,0.344256,-0.007217,0.887505,0.079476,0.177323,-3.140284,-0.464707,0.441999,-0.787504,6.035756,-5.422437
1.020000,-1.653627,-1.448407,1.476903,1.284892,0.345028,-0.005422,0.856064,0.075133,0.181468,-3.147743,-0.403688,0.386636,-0.705233,6.166706,-5.646671
1.030000,-1.640735,-1.444953,1.476857,1.293295,0.345761,-0.003589,0.824553,0.071407,0.185049,-3.154407,-0.341400,0.329136,-0.628390,6.289434,-5.849769
1.040000,-1.627762,-1.441492,1.476831,1.301383,0.346459,-0.001723,0.792978,0.068309,0.188045,-3.160326,-0.277927,0.269714,-0.556294,6.403954,-6.030946
1.050000,-1.614709,-1.438024,1.476823,1.309155,0.347129,0.000170,0.761349,0.065852,0.190438,-3.165546,-0.213349,0.208592,-0.488267,6.510279,-6.189418
1.060000,-1.601580,-1.434549,1.476834,1.316610,0.347778,0.002084,0.729669,0.064045,0.192210,-3.170144,-0.147777,0.145831,-0.422592,6.609148,-6.320037
1.070000,-1.588378,-1.431068,1.476865,1.323748,0.348412,0.004012,0.697948,0.062899,0.193350,-3.174054,-0.081225,0.082076,-0.359754,6.699763,-6.426916
1.080000,-1.575106,-1.427581,1.476915,1.330569,0.349038,0.005948,0.666190,0.062424,0.193848,-3.177347,-0.013809,0.017372,-0.299202,6.782049,-6.509806
1.090000,-1.561767,-1.424087,1.476984,1.337072,0.349663,0.007887,0.634403,0.062626,0.193695,-3.180044,0.054388,-0.048039,-0.240384,6.855931,-6.568456
1.100000,-1.548366,-1.420588,1.477072,1.343257,0.350293,0.009820,0.602591,0.063514,0.192886,-3.182158,0.123281,-0.113915,-0.182747,6.921335,-6.602618
1.110000,-1.534903,-1.417081,1.477180,1.349123,0.350935,0.011742,0.570761,0.065093,0.191414,-3.183758,0.192754,-0.180176,-0.124292,6.979001,-6.607830
1.120000,-1.521384,-1.413569,1.477307,1.354672,0.351597,0.013646,0.538918,0.067371,0.189283,-3.184710,0.262796,-0.246178,-0.066092,7.027941,-6.588568
1.130000,-1.507811,-1.410049,1.477453,1.359902,0.352285,0.015526,0.507069,0.070351,0.186492,-3.185079,0.333283,-0.311867,-0.007772,7.067979,-6.545099
1.140000,-1.494187,-1.406523,1.477617,1.364813,0.353006,0.017374,0.475218,0.074037,0.183047,-3.184864,0.404125,-0.377000,0.051044,7.098941,-6.477688
1.150000,-1.480516,-1.402989,1.477800,1.369406,0.353768,0.019185,0.443373,0.078434,0.178955,-3.184056,0.475231,-0.441341,0.110730,7.120654,-6.386601
1.160000,-1.466800,-1.399447,1.478001,1.373681,0.354577,0.020951,0.411539,0.083542,0.174222,-3.182705,0.546486,-0.504801,0.173185,7.133464,-6.268407
1.170000,-1.453043,-1.395897,1.478219,1.377637,0.355441,0.022667,0.379721,0.089364,0.168863,-3.180655,0.617844,-0.566799,0.237073,7.136612,-6.127520
1.180000,-1.439248,-1.392338,1.478454,1.381275,0.356367,0.024326,0.347928,0.095899,0.162891,-3.177958,0.689185,-0.627278,0.302582,7.129858,-5.964660
1.190000,-1.425419,-1.388770,1.478705,1.384596,0.357362,0.025923,0.316164,0.103147,0.156323,-3.174597,0.760408,-0.686021,0.369901,7.112966,-5.780544
1.200000,-1.411558,-1.385191,1.478972,1.387599,0.358432,0.027451,0.284438,0.111107,0.149177,-3.170554,0.831410,-0.742820,0.439218,7.085695,-5.575890
1.210000,-1.397668,-1.381601,1.479254,1.390285,0.359586,0.028905,0.252755,0.119774,0.141473,-3.165858,0.902092,-0.797588,0.512051,7.047654,-5.348521
1.220000,-1.383753,-1.377999,1.479550,1.392654,0.360830,0.030278,0.221123,0.129147,0.133233,-3.160365,0.972334,-0.849857,0.587095,6.998777,-5.102406
1.230000,-1.369816,-1.374384,1.479860,1.394707,0.362172,0.031567,0.189550,0.139219,0.124484,-3.154109,1.042031,-0.899577,0.664377,6.938846,-4.838617
1.240000,-1.355860,-1.370755,1.480181,1.396445,0.363617,0.032767,0.158044,0.149985,0.115251,-3.147069,1.111073,-0.946574,0.743921,6.867640,-4.558228
1.250000,-1.341888,-1.367111,1.480515,1.397868,0.365174,0.033871,0.126612,0.161438,0.105562,-3.139223,1.179346,-0.990690,0.825753,6.784940,-4.262310
1.260000,-1.327903,-1.363451,1.480858,1.398978,0.366848,0.034876,0.095262,0.173570,0.095446,-3.130585,1.246765,-1.031847,0.910876,6.689719,-3.950056
1.270000,-1.313909,-1.359774,1.481212,1.399774,0.368647,0.035779,0.064003,0.186370,0.084936,-3.121042,1.313137,-1.069731,0.998218,6.582664,-3.624649
1.280000,-1.299909,-1.356078,1.481574,1.400258,0.370578,0.036574,0.032844,0.199829,0.074063,-3.110614,1.378378,-1.104300,1.087684,6.463655,-3.287394
1.290000,-1.285905,-1.352362,1.481943,1.400431,0.372646,0.037259,0.001794,0.213934,0.062861,-3.099281,1.442370,-1.135444,1.179181,6.332573,-2.939593
1.300000,-1.271901,-1.348625,1.482318,1.400294,0.374858,0.037830,-0.029139,0.228671,0.051366,-3.087024,1.504989,-1.163061,1.272613,6.189297,-2.582550
1.310000,-1.257900,-1.344864,1.482699,1.399849,0.377221,0.038285,-0.059944,0.244029,0.039612,-3.073841,1.566171,-1.187097,1.368333,6.032270,-2.216834
1.320000,-1.243906,-1.341080,1.483084,1.399096,0.379741,0.038622,-0.090612,0.259989,0.027636,-3.059672,1.625658,-1.207409,1.465746,5.862985,-1.844573
1.330000,-1.229920,-1.337269,1.483471,1.398037,0.382423,0.038837,-0.121134,0.276536,0.015476,-3.044521,1.683390,-1.223971,1.564701,5.681497,-1.467157
1.340000,-1.215946,-1.333431,1.483860,1.396674,0.385274,0.038931,-0.151499,0.293651,0.003169,-3.028373,1.739247,-1.236740,1.665050,5.487863,-1.085981
1.350000,-1.201987,-1.329563,1.484249,1.395008,0.388298,0.038900,-0.181698,0.311315,-0.009246,-3.011215,1.793107,-1.245683,1.766643,5.282136,-0.702437
1.360000,-1.188047,-1.325664,1.484638,1.393040,0.391502,0.038746,-0.211721,0.329509,-0.021731,-2.993056,1.845077,-1.250761,1.869833,5.058628,-0.318516
1.370000,-1.174127,-1.321732,1.485024,1.390774,0.394890,0.038466,-0.241556,0.348208,-0.034248,-2.973838,1.894499,-1.252028,1.973907,4.823843,0.065060
1.380000,-1.160232,-1.317766,1.485407,1.388210,0.398467,0.038061,-0.271194,0.367391,-0.046759,-2.953576,1.941519,-1.249466,2.078655,4.578541,0.446971
1.390000,-1.146364,-1.313762,1.485785,1.385351,0.402239,0.037531,-0.300624,0.387030,-0.059225,-2.932264,1.986037,-1.243098,2.183867,4.323481,0.825900
1.400000,-1.132526,-1.309720,1.486157,1.382198,0.406209,0.036876,-0.329836,0.407103,-0.071608,-2.909898,2.027959,-1.232962,2.289331,4.059423,1.200526
1.410000,-1.118721,-1.305637,1.486522,1.378755,0.410382,0.036099,-0.358818,0.427580,-0.083871,-2.886469,2.067111,-1.219041,2.394634,3.789328,1.567867
1.420000,-1.104952,-1.301512,1.486878,1.375023,0.414762,0.035199,-0.387561,0.448436,-0.095977,-2.861996,2.103621,-1.201553,2.499793,3.511484,1.928470
1.430000,-1.091222,-1.297341,1.487225,1.371004,0.419352,0.034180,-0.416055,0.469643,-0.107890,-2.836474,2.137316,-1.180498,2.604623,3.226381,2.281218
1.440000,-1.077533,-1.293124,1.487561,1.366702,0.424156,0.033042,-0.444287,0.491172,-0.119575,-2.809906,2.168126,-1.155959,2.708939,2.934509,2.624996
1.450000,-1.063888,-1.288858,1.487886,1.362120,0.429177,0.031789,-0.472249,0.512995,-0.130998,-2.782297,2.195986,-1.128031,2.812556,2.636358,2.958687
1.460000,-1.050291,-1.284540,1.488197,1.357258,0.434417,0.030423,-0.499930,0.535082,-0.142124,-2.753624,2.220844,-1.096724,2.914440,2.332158,3.278710
1.470000,-1.036744,-1.280168,1.488494,1.352122,0.439879,0.028948,-0.527318,0.557402,-0.152922,-2.723974,2.242623,-1.062387,3.015358,2.022691,3.586717
1.480000,-1.023250,-1.275741,1.488776,1.346713,0.445566,0.027366,-0.554406,0.579924,-0.163362,-2.693320,2.261282,-1.025033,3.115226,1.708478,3.881893
1.490000,-1.009811,-1.271256,1.489041,1.341035,0.451478,0.025682,-0.581181,0.602617,-0.173413,-2.661673,2.276778,-0.984795,3.213963,1.390039,4.163424
1.500000,-0.996430,-1.266711,1.489289,1.335090,0.457618,0.023899,-0.607636,0.625449,-0.183049,-2.629045,2.289071,-0.941813,3.311487,1.067897,4.430496
1.510000,-0.983110,-1.262103,1.489519,1.328883,0.463988,0.022022,-0.633759,0.648390,-0.192240,-2.595437,2.298325,-0.896118,3.407445,0.737545,4.679324
1.520000,-0.969853,-1.257431,1.489729,1.322416,0.470586,0.020056,-0.659541,0.671405,-0.200963,-2.560889,2.304039,-0.848146,3.502059,0.405148,4.912429
1.530000,-0.956662,-1.252691,1.489919,1.315694,0.477416,0.018005,-0.684974,0.694460,-0.209195,-2.525401,2.306425,-0.797923,3.595281,0.071843,5.129360
1.540000,-0.943540,-1.247881,1.490089,1.308718,0.484476,0.015874,-0.710046,0.717522,-0.216914,-2.488988,2.305477,-0.745614,3.687062,-0.261232,5.329668
1.550000,-0.930489,-1.243000,1.490237,1.301494,0.491766,0.013668,-0.734750,0.740558,-0.224101,-2.451664,2.301204,-0.691387,3.777352,-0.592942,5.512901
1.560000,-0.917511,-1.238045,1.490362,1.294024,0.499287,0.011394,-0.759077,0.763534,-0.230735,-2.413435,2.293519,-0.635301,3.865832,-0.919427,5.675744
1.570000,-0.904609,-1.233014,1.490464,1.286314,0.507037,0.009055,-0.783016,0.786418,-0.236802,-2.374341,2.282705,-0.577803,3.952757,-1.242605,5.820963
1.580000,-0.891786,-1.227904,1.490543,1.278365,0.515015,0.006659,-0.806561,0.809177,-0.242287,-2.334385,2.268680,-0.518941,4.038113,-1.561672,5.948460
1.590000,-0.879043,-1.222713,1.490597,1.270184,0.523220,0.004212,-0.829701,0.831781,-0.247177,-2.293584,2.251488,-0.458893,4.121884,-1.875825,6.058136
1.600000,-0.866383,-1.217439,1.490627,1.261773,0.531650,0.001718,-0.852429,0.854197,-0.251461,-2.251953,2.231183,-0.397838,4.204054,-2.184259,6.149891
1.610000,-0.853808,-1.212079,1.490631,1.253137,0.540303,-0.000816,-0.874737,0.876394,-0.255130,-2.209497,2.207778,-0.335858,4.284326,-2.484994,6.221178
1.620000,-0.841321,-1.206632,1.490611,1.244279,0.549177,-0.003383,-0.896617,0.898342,-0.258176,-2.166259,2.181454,-0.273364,4.363002,-2.778547,6.274647
1.630000,-0.828923,-1.201095,1.490564,1.235206,0.558269,-0.005977,-0.918060,0.920013,-0.260595,-2.122242,2.152234,-0.210424,4.440100,-3.064258,6.310496
1.640000,-0.816617,-1.195466,1.490491,1.225920,0.567576,-0.008592,-0.939059,0.941378,-0.262384,-2.077462,2.120198,-0.147213,4.515638,-3.341467,6.328927
1.650000,-0.804405,-1.189743,1.490392,1.216426,0.577095,-0.011223,-0.959607,0.962408,-0.263539,-2.031935,2.085435,-0.083903,4.589637,-3.609514,6.330140
1.660000,-0.792290,-1.183923,1.490266,1.206729,0.586823,-0.013861,-0.979695,0.983077,-0.264061,-1.985673,2.047973,-0.020596,4.662068,-3.866042,6.312550
1.670000,-0.780272,-1.178006,1.490115,1.196834,0.596755,-0.016502,-0.999318,1.003359,-0.263952,-1.938696,2.008073,0.042372,4.733003,-4.112296,6.278362
1.680000,-0.768353,-1.171988,1.489936,1.186744,0.606889,-0.019138,-1.018467,1.023230,-0.263215,-1.891018,1.965763,0.104918,4.802466,-4.347824,6.227994
1.690000,-0.756537,-1.165867,1.489732,1.176466,0.617219,-0.021764,-1.037136,1.042667,-0.261856,-1.842652,1.921153,0.166880,4.870482,-4.572173,6.161866
1.700000,-0.744825,-1.159642,1.489501,1.166003,0.627741,-0.024373,-1.055318,1.061646,-0.259880,-1.793613,1.874358,0.228104,4.937075,-4.784893,6.080397
1.710000,-0.733218,-1.153312,1.489244,1.155361,0.638450,-0.026960,-1.073006,1.080146,-0.257296,-1.743921,1.825414,0.288479,5.002418,-4.983468,5.982972
1.720000,-0.721718,-1.146873,1.488962,1.144545,0.649342,-0.029517,-1.090194,1.098148,-0.254114,-1.693576,1.774638,0.347761,5.066369,-5.169762,5.871170
1.730000,-0.710327,-1.140324,1.488654,1.133559,0.660411,-0.032040,-1.106875,1.115633,-0.250345,-1.642598,1.722060,0.405856,5.128937,-5.343573,5.745538
1.740000,-0.699048,-1.133664,1.488321,1.122409,0.671653,-0.034522,-1.123044,1.132584,-0.246001,-1.591001,1.667808,0.462628,5.190127,-5.504702,5.606622
1.750000,-0.687880,-1.126891,1.487964,1.111100,0.683061,-0.036958,-1.138693,1.148984,-0.241097,-1.538800,1.612009,0.517946,5.249947,-5.652950,5.454968
1.760000,-0.676826,-1.120002,1.487582,1.099637,0.694631,-0.039342,-1.153818,1.164818,-0.235647,-1.486018,1.554709,0.571700,5.308693,-5.786000,5.290771
1.770000,-0.665888,-1.112998,1.487177,1.088025,0.706355,-0.041669,-1.168412,1.180074,-0.229669,-1.432644,1.496238,0.623739,5.366046,-5.906027,5.114971
1.780000,-0.655066,-1.105875,1.486749,1.076270,0.718230,-0.043934,-1.182469,1.194739,-0.223179,-1.378702,1.436632,0.673963,5.421979,-6.013092,4.928155
1.790000,-0.644363,-1.098632,1.486299,1.064378,0.730248,-0.046131,-1.195984,1.208803,-0.216196,-1.324209,1.376019,0.722267,5.476462,-6.107253,4.730912
1.800000,-0.633779,-1.091269,1.485827,1.052353,0.742404,-0.048256,-1.208951,1.222257,-0.208740,-1.269178,1.314530,0.768549,5.529468,-6.188570,4.523831
1.810000,-0.623316,-1.083784,1.485334,1.040201,0.754691,-0.050304,-1.221366,1.235090,-0.200832,-1.213639,1.252215,0.812706,5.581344,-6.255195,4.307656
1.820000,-0.612975,-1.076175,1.484821,1.027927,0.767104,-0.052271,-1.233222,1.247299,-0.192493,-1.157573,1.189382,0.854666,5.631640,-6.309328,4.082801
1.830000,-0.602758,-1.068441,1.484289,1.015538,0.779635,-0.054153,-1.244516,1.258876,-0.183746,-1.101012,1.126069,0.894335,5.680280,-6.351262,3.849836
1.840000,-0.592665,-1.060582,1.483738,1.003039,0.792279,-0.055945,-1.255241,1.269819,-0.174615,-1.043973,1.062397,0.931637,5.727188,-6.381290,3.609329
1.850000,-0.582697,-1.052596,1.483170,0.990435,0.805029,-0.057644,-1.265394,1.280124,-0.165122,-0.986474,0.998482,0.966499,5.772291,-6.399706,3.361851
1.860000,-0.572857,-1.044481,1.482586,0.977733,0.817880,-0.059246,-1.274969,1.289788,-0.155293,-0.928550,0.934381,0.998836,5.815925,-6.405295,3.108392
1.870000,-0.563143,-1.036238,1.481986,0.964938,0.830823,-0.060749,-1.283963,1.298811,-0.145154,-0.870181,0.870345,1.028628,5.857553,-6.400042,2.849048
1.880000,-0.553558,-1.027864,1.481371,0.952055,0.843854,-0.062148,-1.292371,1.307195,-0.134729,-0.811406,0.806414,1.055799,5.897050,-6.384424,2.584338
1.890000,-0.544102,-1.019360,1.480743,0.939092,0.856965,-0.063443,-1.300190,1.314940,-0.124047,-0.752247,0.742690,1.080299,5.934292,-6.358918,2.314780
1.900000,-0.534776,-1.010725,1.480103,0.926054,0.870150,-0.064629,-1.307415,1.322050,-0.113132,-0.692728,0.679267,1.102081,5.969151,-6.324000,2.040890
1.910000,-0.525581,-1.001957,1.479451,0.912946,0.883404,-0.065705,-1.314044,1.328526,-0.102014,-0.632888,0.616200,1.121086,6.001883,-6.279155,1.763633
1.920000,-0.516518,-0.993056,1.478789,0.899775,0.896719,-0.066668,-1.320072,1.334375,-0.090720,-0.572716,0.553668,1.137322,6.031937,-6.225975,1.483026
1.930000,-0.507586,-0.984022,1.478118,0.886546,0.910089,-0.067518,-1.325497,1.339602,-0.079277,-0.512259,0.491706,1.150737,6.059142,-6.165060,1.199533
1.940000,-0.498787,-0.974855,1.477439,0.873267,0.923509,-0.068253,-1.330316,1.344212,-0.067715,-0.451544,0.430390,1.161305,6.083325,-6.097008,0.913618
1.950000,-0.490121,-0.965552,1.476753,0.859942,0.936971,-0.068872,-1.334527,1.348212,-0.056061,-0.390603,0.369788,1.169003,6.104315,-6.022419,0.625744
1.960000,-0.481588,-0.956115,1.476062,0.846578,0.950471,-0.069374,-1.338128,1.351610,-0.044344,-0.329475,0.309944,1.173804,6.122106,-5.941450,0.336648
1.970000,-0.473189,-0.946543,1.475366,0.833182,0.964002,-0.069759,-1.341116,1.354414,-0.032594,-0.268180,0.250957,1.175720,6.136341,-5.855196,0.046486
1.980000,-0.464925,-0.936835,1.474667,0.819758,0.977557,-0.070026,-1.343491,1.356632,-0.020840,-0.206761,0.192856,1.174732,6.146827,-5.764310,-0.244311
1.990000,-0.456794,-0.926991,1.473966,0.806314,0.991132,-0.070176,-1.345251,1.358274,-0.009109,-0.145256,0.135684,1.170833,6.153374,-5.669444,-0.535312
2.000000,-0.448799,-0.917012,1.473264,0.792855,1.004721,-0.070209,-1.346396,1.359349,0.002567,-0.083707,0.079478,1.164026,6.155790,-5.571252,-0.826087
2.010000,-0.440937,-0.906897,1.472562,0.779388,1.018317,-0.070125,-1.346925,1.359867,0.014161,-0.022146,0.024272,1.154314,6.153666,-5.470482,-1.116222
2.020000,-0.433211,-0.896646,1.471862,0.765919,1.031916,-0.069926,-1.346839,1.359838,0.025644,0.039361,-0.029921,1.141706,6.147054,-5.367681,-1.405268
2.030000,-0.425619,-0.886259,1.471164,0.752453,1.045512,-0.069613,-1.346138,1.359272,0.036986,0.100779,-0.083077,1.126214,6.135787,-5.263489,-1.692795
2.040000,-0.418162,-0.875736,1.470470,0.738998,1.059100,-0.069187,-1.344824,1.358179,0.048159,0.162061,-0.135188,1.107857,6.119702,-5.158549,-1.978369
2.050000,-0.410839,-0.865077,1.469781,0.725559,1.072674,-0.068650,-1.342898,1.356571,0.059134,0.223157,-0.186248,1.086655,6.098632,-5.053501,-2.261560
2.060000,-0.403650,-0.854282,1.469097,0.712142,1.086230,-0.068005,-1.340361,1.354458,0.069883,0.284026,-0.236239,1.062648,6.072151,-4.949521,-2.542256
2.070000,-0.396596,-0.843352,1.468421,0.698754,1.099762,-0.067253,-1.337218,1.351850,0.080377,0.344594,-0.285218,1.035835,6.040387,-4.846652,-2.819665
2.080000,-0.389675,-0.832287,1.467753,0.685400,1.113265,-0.066398,-1.333471,1.348757,0.090590,0.404816,-0.333177,1.006267,6.003207,-4.745468,-3.093314
2.090000,-0.382888,-0.821087,1.467093,0.672086,1.126735,-0.065442,-1.329123,1.345190,0.100494,0.464639,-0.380135,0.973983,5.960476,-4.646545,-3.362733
2.100000,-0.376233,-0.809752,1.466444,0.658819,1.140167,-0.064389,-1.324179,1.341158,0.110061,0.524007,-0.426118,0.939028,5.912063,-4.550461,-3.627448
2.110000,-0.369711,-0.798284,1.465806,0.645605,1.153557,-0.063242,-1.318645,1.336671,0.119266,0.582865,-0.471121,0.901473,5.857729,-4.458664,-3.887545
2.120000,-0.363321,-0.786681,1.465180,0.632448,1.166899,-0.062005,-1.312524,1.331738,0.128082,0.641146,-0.515265,0.861321,5.797459,-4.370750,-4.141929
2.130000,-0.357062,-0.774946,1.464566,0.619356,1.180190,-0.060682,-1.305824,1.326369,0.136484,0.698794,-0.558551,0.818655,5.731131,-4.287187,-4.390058
2.140000,-0.350934,-0.763078,1.463966,0.606334,1.193425,-0.059277,-1.298550,1.320570,0.144447,0.755748,-0.601025,0.773542,5.658624,-4.208444,-4.631394
2.150000,-0.344935,-0.751078,1.463381,0.593387,1.206600,-0.057795,-1.290711,1.314351,0.151947,0.811946,-0.642737,0.726052,5.579817,-4.134990,-4.865397
2.160000,-0.339066,-0.738946,1.462810,0.580521,1.219711,-0.056240,-1.282314,1.307718,0.158960,0.867332,-0.683697,0.676286,5.494368,-4.068461,-5.092159
2.170000,-0.333324,-0.726684,1.462256,0.567742,1.232753,-0.054617,-1.273368,1.300679,0.165465,0.921821,-0.724074,0.624265,5.402406,-4.008015,-5.310431
2.180000,-0.327711,-0.714291,1.461718,0.555056,1.245723,-0.052932,-1.263881,1.293239,0.171438,0.975358,-0.763879,0.570107,5.303836,-3.953979,-5.519596
2.190000,-0.322223,-0.701769,1.461198,0.542467,1.258617,-0.051190,-1.253864,1.285403,0.176860,1.027876,-0.803177,0.513906,5.198567,-3.906679,-5.719037
2.200000,-0.316861,-0.689119,1.460695,0.529980,1.271430,-0.049397,-1.243327,1.277177,0.181710,1.079307,-0.842036,0.455761,5.086504,-3.866440,-5.908136
2.210000,-0.311623,-0.676341,1.460210,0.517602,1.284159,-0.047558,-1.232281,1.268564,0.185969,1.129660,-0.880479,0.395799,4.965601,-3.834872,-6.086766
2.220000,-0.306508,-0.663436,1.459744,0.505336,1.296800,-0.045680,-1.220738,1.259568,0.189620,1.178684,-0.918701,0.334086,4.837957,-3.810861,-6.253761
2.230000,-0.301516,-0.650405,1.459296,0.493189,1.309349,-0.043768,-1.208711,1.250191,0.192646,1.226397,-0.956722,0.270765,4.703717,-3.794575,-6.408442
2.240000,-0.296644,-0.637250,1.458868,0.481164,1.321802,-0.041829,-1.196215,1.240434,0.195031,1.272736,-0.994619,0.205961,4.563029,-3.786183,-6.550135
2.250000,-0.291892,-0.623970,1.458460,0.469266,1.334156,-0.039869,-1.183262,1.230298,0.196761,1.317637,-1.032473,0.139808,4.416037,-3.785855,-6.678160
2.260000,-0.287259,-0.610567,1.458071,0.457500,1.346407,-0.037896,-1.169867,1.219785,0.197823,1.361020,-1.070283,0.072448,4.263318,-3.795786,-6.791906
2.270000,-0.282742,-0.597042,1.457702,0.445870,1.358551,-0.035915,-1.156046,1.208892,0.198206,1.402864,-1.108325,0.004022,4.104534,-3.813870,-6.890622
2.280000,-0.278341,-0.583396,1.457353,0.434380,1.370584,-0.033934,-1.141815,1.197618,0.197900,1.443090,-1.146588,-0.065312,3.939780,-3.840026,-6.973626
2.290000,-0.274054,-0.569631,1.457023,0.423035,1.382502,-0.031960,-1.127190,1.185960,0.196897,1.481640,-1.185152,-0.135395,3.769148,-3.874175,-7.040232
2.300000,-0.269879,-0.555747,1.456714,0.411838,1.394302,-0.029999,-1.112188,1.173914,0.195190,1.518454,-1.224098,-0.206060,3.592732,-3.916238,-7.089754
2.310000,-0.265816,-0.541745,1.456423,0.400792,1.405979,-0.028058,-1.096827,1.161477,0.192774,1.553501,-1.263430,-0.277157,3.409982,-3.967967,-7.120860
2.320000,-0.261863,-0.527627,1.456152,0.389902,1.417530,-0.026145,-1.081124,1.148643,0.189646,1.586664,-1.303400,-0.348445,3.221713,-4.027226,-7.133593
2.330000,-0.258018,-0.513395,1.455900,0.379171,1.428950,-0.024268,-1.065100,1.135407,0.185805,1.617917,-1.343999,-0.419766,3.028098,-4.093711,-7.127347
2.340000,-0.254279,-0.499049,1.455667,0.368601,1.440237,-0.022432,-1.048773,1.121761,0.181252,1.647209,-1.385298,-0.490926,2.829308,-4.167118,-7.101518
2.350000,-0.250645,-0.484591,1.455451,0.358196,1.451384,-0.020645,-1.032162,1.107698,0.175988,1.674487,-1.427363,-0.561729,2.625516,-4.247143,-7.055500
2.360000,-0.247115,-0.470022,1.455254,0.347959,1.462389,-0.018914,-1.015288,1.093212,0.170018,1.699854,-1.470190,-0.632032,2.413074,-4.335285,-6.987056
2.370000,-0.243686,-0.455343,1.455073,0.337891,1.473247,-0.017247,-0.998172,1.078291,0.163350,1.722905,-1.514008,-0.701472,2.196441,-4.429217,-6.897412
2.380000,-0.240356,-0.440557,1.454909,0.327996,1.483953,-0.015650,-0.980837,1.062928,0.155992,1.743771,-1.558792,-0.769908,1.976259,-4.528414,-6.786163
2.390000,-0.237125,-0.425665,1.454760,0.318275,1.494504,-0.014129,-0.963304,1.047112,0.147956,1.762420,-1.604592,-0.837122,1.753165,-4.632351,-6.652904
2.400000,-0.233990,-0.410668,1.454626,0.308731,1.504894,-0.012693,-0.945596,1.030833,0.139255,1.778827,-1.651453,-0.902891,1.527801,-4.740503,-6.497229
2.410000,-0.230950,-0.395567,1.454506,0.299364,1.515119,-0.011346,-0.927735,1.014080,0.129902,1.792987,-1.699315,-0.967101,1.300397,-4.854855,-6.315927
2.420000,-0.228002,-0.380366,1.454398,0.290176,1.525174,-0.010097,-0.909744,0.996843,0.119919,1.804850,-1.748448,-1.029259,1.072052,-4.972066,-6.111743
2.430000,-0.225146,-0.365065,1.454303,0.281169,1.535054,-0.008950,-0.891646,0.979108,0.109324,1.814427,-1.798763,-1.089260,0.843457,-5.091304,-5.884613
2.440000,-0.222378,-0.349665,1.454219,0.272344,1.544755,-0.007912,-0.873463,0.960863,0.098142,1.821721,-1.850278,-1.146874,0.615301,-5.211736,-5.634477
2.450000,-0.219698,-0.334170,1.454145,0.263700,1.554270,-0.006989,-0.855219,0.942098,0.086396,1.826737,-1.902999,-1.201872,0.388275,-5.332533,-5.361272
2.460000,-0.217104,-0.318581,1.454079,0.255239,1.563595,-0.006186,-0.836936,0.922800,0.074112,1.829499,-1.956854,-1.254178,0.162895,-5.454704,-5.061010
2.470000,-0.214593,-0.302899,1.454020,0.246962,1.572724,-0.005508,-0.818636,0.902957,0.061323,1.830011,-2.012006,-1.303192,-0.059955,-5.575349,-4.738036
2.480000,-0.212164,-0.287127,1.453968,0.238867,1.581652,-0.004961,-0.800343,0.882556,0.048059,1.828311,-2.068352,-1.348865,-0.279562,-5.693410,-4.392769
2.490000,-0.209815,-0.271266,1.453921,0.230955,1.590373,-0.004549,-0.782078,0.861586,0.034357,1.824433,-2.125862,-1.390975,-0.495215,-5.807830,-4.025630
2.500000,-0.207544,-0.255320,1.453877,0.223225,1.598882,-0.004275,-0.763861,0.840035,0.020252,1.818422,-2.184493,-1.429306,-0.706202,-5.917550,-3.637036
2.510000,-0.205350,-0.239290,1.453835,0.215677,1.607172,-0.004145,-0.745716,0.817893,0.005782,1.810352,-2.244163,-1.463831,-0.912442,-6.022290,-3.222713
2.520000,-0.203230,-0.223177,1.453793,0.208310,1.615238,-0.004161,-0.727661,0.795148,-0.009010,1.800222,-2.304881,-1.493903,-1.112517,-6.120119,-2.788349
2.530000,-0.201183,-0.206986,1.453751,0.201124,1.623073,-0.004326,-0.709718,0.771792,-0.024081,1.788125,-2.366539,-1.519535,-1.305638,-6.209887,-2.334937
2.540000,-0.199207,-0.190717,1.453706,0.194116,1.630671,-0.004643,-0.691905,0.747815,-0.039385,1.774135,-2.429048,-1.540541,-1.491017,-6.290439,-1.863473
2.550000,-0.197300,-0.174373,1.453658,0.187285,1.638027,-0.005114,-0.674241,0.723209,-0.054876,1.758333,-2.492313,-1.556747,-1.667866,-6.360625,-1.374949
2.560000,-0.195461,-0.157957,1.453604,0.180630,1.645133,-0.005741,-0.656744,0.697966,-0.070506,1.740781,-2.556250,-1.568178,-1.834692,-6.418591,-0.865528
2.570000,-0.193687,-0.141471,1.453542,0.174150,1.651984,-0.006525,-0.639431,0.672082,-0.086222,1.721641,-2.620674,-1.574225,-1.991496,-6.463970,-0.341628
2.580000,-0.191977,-0.124918,1.453473,0.167841,1.658573,-0.007466,-0.622317,0.645551,-0.101973,1.700987,-2.685484,-1.574968,-2.137578,-6.495696,0.195167
2.590000,-0.190330,-0.108301,1.453393,0.161702,1.664893,-0.008564,-0.605416,0.618371,-0.117703,1.678928,-2.750539,-1.570284,-2.272236,-6.512700,0.743271
2.600000,-0.188742,-0.091621,1.453301,0.155732,1.670938,-0.009819,-0.588742,0.590540,-0.133360,1.655582,-2.815685,-1.560070,-2.394766,-6.513917,1.301099
2.610000,-0.187214,-0.074883,1.453196,0.149927,1.676702,-0.011231,-0.572309,0.562057,-0.148888,1.631006,-2.880857,-1.544399,-2.502728,-6.495848,1.871205
2.620000,-0.185743,-0.058088,1.453076,0.144285,1.682177,-0.012796,-0.556126,0.532924,-0.164229,1.605494,-2.945652,-1.522810,-2.597371,-6.460155,2.447358
2.630000,-0.184328,-0.041240,1.452939,0.138803,1.687358,-0.014514,-0.540202,0.503145,-0.179325,1.579105,-3.009999,-1.495439,-2.678208,-6.406068,3.027464
2.640000,-0.182967,-0.024342,1.452785,0.133480,1.692238,-0.016382,-0.524546,0.472726,-0.194118,1.551978,-3.073710,-1.462255,-2.744748,-6.332820,3.609430
2.650000,-0.181658,-0.007396,1.452611,0.128312,1.696811,-0.018396,-0.509164,0.441674,-0.208550,1.524259,-3.136589,-1.423251,-2.796503,-6.239640,4.191164
2.660000,-0.180400,0.009593,1.452416,0.123296,1.701069,-0.020552,-0.494063,0.409996,-0.222565,1.495988,-3.198599,-1.378537,-2.830196,-6.121586,4.773036
2.670000,-0.179192,0.026624,1.452200,0.118429,1.705008,-0.022845,-0.479245,0.377706,-0.236102,1.467582,-3.259137,-1.327916,-2.848467,-5.982573,5.350189
2.680000,-0.178031,0.043692,1.451959,0.113710,1.708622,-0.025272,-0.464712,0.344818,-0.249104,1.439071,-3.318179,-1.271557,-2.851168,-5.822343,5.920230
2.690000,-0.176917,0.060795,1.451694,0.109134,1.711903,-0.027825,-0.450464,0.311348,-0.261514,1.410611,-3.375512,-1.209543,-2.838151,-5.640639,6.480764
2.700000,-0.175848,0.077929,1.451402,0.104700,1.714847,-0.030500,-0.436499,0.277314,-0.273276,1.382361,-3.430920,-1.141981,-2.809269,-5.437202,7.029399
2.710000,-0.174822,0.095091,1.451083,0.100403,1.717447,-0.033289,-0.422817,0.242735,-0.284336,1.354338,-3.484403,-1.068996,-2.760819,-5.206217,7.563573
2.720000,-0.173839,0.112277,1.450736,0.096242,1.719700,-0.036184,-0.409411,0.207634,-0.294639,1.327038,-3.535220,-0.990758,-2.696643,-4.953663,8.081079
2.730000,-0.172897,0.129484,1.450359,0.092214,1.721598,-0.039179,-0.396274,0.172039,-0.304134,1.300457,-3.583406,-0.907438,-2.617030,-4.679963,8.579545
2.740000,-0.171995,0.146708,1.449952,0.088316,1.723139,-0.042264,-0.383399,0.135976,-0.312771,1.274748,-3.628750,-0.819238,-2.522266,-4.385539,9.056596
2.750000,-0.171130,0.163945,1.449514,0.084545,1.724317,-0.045431,-0.370775,0.099474,-0.320503,1.250061,-3.671049,-0.726385,-2.412640,-4.070813,9.509859
2.760000,-0.170303,0.181193,1.449043,0.080900,1.725127,-0.048671,-0.358395,0.062563,-0.327283,1.226397,-3.710334,-0.628996,-2.284725,-3.730320,9.933607
2.770000,-0.169512,0.198447,1.448540,0.077377,1.725567,-0.051973,-0.346243,0.025279,-0.333069,1.204247,-3.745856,-0.527657,-2.142978,-3.371091,10.329232
2.780000,-0.168755,0.215703,1.448004,0.073974,1.725632,-0.055329,-0.334305,-0.012342,-0.337823,1.183581,-3.777697,-0.422511,-1.988140,-2.994269,10.694769
2.790000,-0.168032,0.232958,1.447433,0.070690,1.725319,-0.058726,-0.322566,-0.050262,-0.341508,1.164526,-3.805686,-0.313869,-1.820953,-2.600996,11.028257
2.800000,-0.167341,0.250208,1.446829,0.067522,1.724625,-0.062155,-0.311009,-0.088442,-0.344090,1.147201,-3.829666,-0.202059,-1.642160,-2.192417,11.327732
2.810000,-0.166681,0.267449,1.446190,0.064469,1.723549,-0.065604,-0.299618,-0.126843,-0.345537,1.131563,-3.849680,-0.087186,-1.448578,-1.764817,11.584983
2.820000,-0.166051,0.284678,1.445517,0.061530,1.722088,-0.069062,-0.288371,-0.165421,-0.345826,1.118086,-3.865137,0.029795,-1.245355,-1.324792,11.805061
2.830000,-0.165450,0.301890,1.444809,0.058702,1.720240,-0.072517,-0.277249,-0.204131,-0.344934,1.106684,-3.876140,0.148787,-1.033713,-0.874078,11.986769
2.840000,-0.164877,0.319081,1.444067,0.055984,1.718005,-0.075957,-0.266230,-0.242929,-0.342845,1.097436,-3.882589,0.269399,-0.814876,-0.414416,12.128908
2.850000,-0.164330,0.336249,1.443290,0.053377,1.715382,-0.079370,-0.255293,-0.281768,-0.339542,1.090406,-3.884404,0.391229,-0.590066,0.052459,12.230283
2.860000,-0.163809,0.353388,1.442479,0.050878,1.712370,-0.082744,-0.244414,-0.320601,-0.335014,1.085683,-3.881541,0.514181,-0.361344,0.525282,12.281692
2.870000,-0.163312,0.370495,1.441635,0.048488,1.708970,-0.086066,-0.233571,-0.359383,-0.329258,1.083229,-3.873908,0.637080,-0.128993,1.001782,12.290921
2.880000,-0.162839,0.387566,1.440758,0.046207,1.705183,-0.089325,-0.222742,-0.398064,-0.322273,1.083112,-3.861499,0.759858,0.105868,1.480164,12.257751
2.890000,-0.162388,0.404597,1.439849,0.044033,1.701009,-0.092508,-0.211901,-0.436597,-0.314062,1.085351,-3.844304,0.882093,0.342119,1.958631,12.181964
2.900000,-0.161958,0.421585,1.438908,0.041969,1.696451,-0.095602,-0.201027,-0.474934,-0.304634,1.089955,-3.822332,1.003355,0.578638,2.435388,12.063342
2.910000,-0.161548,0.438525,1.437937,0.040013,1.691511,-0.098596,-0.190095,-0.513027,-0.293996,1.096847,-3.795580,1.123536,0.816172,2.907927,11.893574
2.920000,-0.161157,0.455414,1.436937,0.038167,1.686192,-0.101478,-0.179082,-0.550830,-0.282170,1.106188,-3.764159,1.241447,1.051506,3.375250,11.681527
2.930000,-0.160784,0.472247,1.435908,0.036432,1.680496,-0.104236,-0.167964,-0.588295,-0.269175,1.117865,-3.728098,1.357029,1.283292,3.835648,11.427974
2.940000,-0.160428,0.489022,1.434853,0.034808,1.674427,-0.106858,-0.156717,-0.625376,-0.255038,1.131837,-3.687475,1.469870,1.510181,4.287411,11.133688
2.950000,-0.160088,0.505735,1.433772,0.033298,1.667990,-0.109333,-0.145319,-0.662029,-0.239788,1.148048,-3.642384,1.579569,1.730825,4.728830,10.799441
2.960000,-0.159762,0.522381,1.432667,0.031903,1.661188,-0.111650,-0.133749,-0.698208,-0.223456,1.166448,-3.592792,1.686007,1.943377,5.154490,10.418982
2.970000,-0.159449,0.538957,1.431539,0.030624,1.654027,-0.113799,-0.121983,-0.733871,-0.206082,1.186908,-3.539173,1.788137,2.147048,5.566842,10.000970
2.980000,-0.159149,0.555460,1.430391,0.029464,1.646512,-0.115768,-0.110004,-0.768978,-0.187708,1.209355,-3.481503,1.885906,2.340549,5.964630,9.547038
2.990000,-0.158860,0.571886,1.429224,0.028424,1.638650,-0.117550,-0.097790,-0.803488,-0.168379,1.233681,-3.419933,1.978964,2.522594,6.346599,9.058819
3.000000,-0.158580,0.588232,1.428041,0.027509,1.630445,-0.119133,-0.085324,-0.837364,-0.148145,1.259765,-3.354628,2.066974,2.691893,6.711492,8.537947
3.010000,-0.158309,0.604494,1.426842,0.026719,1.621904,-0.120510,-0.072587,-0.870566,-0.127055,1.287724,-3.285494,2.149820,2.840799,7.051223,7.980989
3.020000,-0.158045,0.620669,1.425631,0.026058,1.613036,-0.121671,-0.059565,-0.903063,-0.105168,1.316816,-3.213361,2.226724,2.975163,7.372205,7.395266
3.030000,-0.157788,0.636754,1.424410,0.025528,1.603846,-0.122611,-0.046246,-0.934823,-0.082541,1.347177,-3.138114,2.297637,3.094477,7.674018,6.783031
3.040000,-0.157534,0.652745,1.423180,0.025134,1.594342,-0.123320,-0.032618,-0.965816,-0.059236,1.378654,-3.059946,2.362304,3.198233,7.956243,6.146537
3.050000,-0.157284,0.668640,1.421944,0.024877,1.584532,-0.123793,-0.018670,-0.996013,-0.035316,1.411088,-2.979056,2.420494,3.285921,8.218463,5.488040
3.060000,-0.157036,0.684435,1.420705,0.024762,1.574424,-0.124025,-0.004392,-1.025386,-0.010847,1.444433,-2.895451,2.472095,3.354096,8.455369,4.807371
3.070000,-0.156789,0.700127,1.419464,0.024790,1.564027,-0.124009,0.010221,-1.053914,0.014103,1.478246,-2.809798,2.516692,3.405546,8.672029,4.109502
3.080000,-0.156540,0.715714,1.418225,0.024967,1.553349,-0.123741,0.025174,-1.081575,0.039463,1.512488,-2.722078,2.554236,3.440122,8.868623,3.396983
3.090000,-0.156289,0.731193,1.416990,0.025295,1.542398,-0.123218,0.040471,-1.108350,0.065163,1.546991,-2.632492,2.584592,3.457676,9.045331,2.672365
3.100000,-0.156034,0.746561,1.415762,0.025778,1.531185,-0.122437,0.056114,-1.134220,0.091131,1.581584,-2.541237,2.607651,3.458057,9.202331,1.938199
3.110000,-0.155773,0.761816,1.414543,0.026418,1.519717,-0.121395,0.072105,-1.159168,0.117292,1.616248,-2.448330,2.623328,3.437244,9.335255,1.197129
3.120000,-0.155505,0.776955,1.413335,0.027221,1.508005,-0.120091,0.088438,-1.183182,0.143572,1.650446,-2.354391,2.631575,3.399435,9.449389,0.451600
3.130000,-0.155228,0.791975,1.412142,0.028188,1.496057,-0.118523,0.105112,-1.206252,0.169898,1.684181,-2.259402,2.632354,3.344957,9.545468,-0.295851
3.140000,-0.154940,0.806875,1.410965,0.029324,1.483883,-0.116693,0.122120,-1.228367,0.196195,1.717290,-2.163540,2.625660,3.274134,9.624230,-1.042685
3.150000,-0.154641,0.821652,1.409809,0.030632,1.471492,-0.114600,0.139455,-1.249520,0.222387,1.749611,-2.066973,2.611511,3.187292,9.686412,-1.786364
3.160000,-0.154327,0.836304,1.408674,0.032114,1.458895,-0.112246,0.157110,-1.269704,0.248399,1.781120,-1.969750,2.589865,3.081315,9.729873,-2.522153
3.170000,-0.153998,0.850829,1.407565,0.033775,1.446102,-0.109633,0.175074,-1.288914,0.274160,1.811341,-1.872296,2.560996,2.960391,9.758579,-3.249978
3.180000,-0.153651,0.865226,1.406482,0.035617,1.433120,-0.106764,0.193333,-1.307149,0.299595,1.840281,-1.774624,2.524899,2.825268,9.773620,-3.967569
3.190000,-0.153285,0.879491,1.405430,0.037643,1.419962,-0.103642,0.211875,-1.324406,0.324634,1.867801,-1.676866,2.481687,2.676691,9.776084,-4.672657
3.200000,-0.152898,0.893624,1.404410,0.039855,1.406636,-0.100272,0.230684,-1.340686,0.349205,1.893772,-1.579141,2.431495,2.515407,9.767060,-5.362973
3.210000,-0.152487,0.907623,1.403426,0.042257,1.393151,-0.096660,0.249745,-1.355989,0.373239,1.918157,-1.481531,2.374340,2.339952,9.746930,-6.032601
3.220000,-0.152052,0.921487,1.402478,0.044851,1.379519,-0.092810,0.269041,-1.370318,0.396670,1.940633,-1.384201,2.310743,2.153555,9.717577,-6.683364
3.230000,-0.151590,0.935213,1.401570,0.047639,1.365748,-0.088729,0.288552,-1.383674,0.419433,1.961195,-1.287206,2.240741,1.957233,9.680177,-7.313437
3.240000,-0.151098,0.948801,1.400704,0.050622,1.351849,-0.084423,0.308258,-1.396063,0.441464,1.979748,-1.190621,2.164550,1.752005,9.635907,-7.920998
3.250000,-0.150576,0.962250,1.399882,0.053804,1.337830,-0.079902,0.328140,-1.407488,0.462704,1.996209,-1.094507,2.082403,1.538888,9.585941,-8.504222
3.260000,-0.150022,0.975558,1.399107,0.057186,1.323702,-0.075172,0.348175,-1.417956,0.483092,2.010533,-0.998973,1.994378,1.318150,9.532875,-9.056874
3.270000,-0.149432,0.988724,1.398380,0.060768,1.309474,-0.070243,0.368343,-1.427470,0.502574,2.022586,-0.903925,1.901159,1.091650,9.476292,-9.582083
3.280000,-0.148806,1.001747,1.397703,0.064553,1.295156,-0.065124,0.388619,-1.436036,0.521098,2.032350,-0.809456,1.802832,0.860498,9.417194,-10.078568
3.290000,-0.148140,1.014627,1.397078,0.068541,1.280757,-0.059824,0.408982,-1.443661,0.538614,2.039784,-0.715586,1.699688,0.625804,9.356581,-10.545044
3.300000,-0.147434,1.027362,1.396507,0.072733,1.266286,-0.054355,0.429407,-1.450350,0.555076,2.044858,-0.622326,1.592035,0.388677,9.295457,-10.980230
3.310000,-0.146685,1.039952,1.395991,0.077129,1.251753,-0.048726,0.449871,-1.456111,0.570439,2.047526,-0.529800,1.480008,0.150919,9.237964,-11.378202
3.320000,-0.145891,1.052397,1.395533,0.081730,1.237167,-0.042950,0.470350,-1.460948,0.584664,2.047845,-0.437703,1.364375,-0.087137,9.181578,-11.742886
3.330000,-0.145050,1.064695,1.395133,0.086536,1.222537,-0.037037,0.490820,-1.464867,0.597715,2.045786,-0.346162,1.245264,-0.324467,9.126916,-12.073566
3.340000,-0.144159,1.076847,1.394792,0.091547,1.207872,-0.031000,0.511258,-1.467873,0.609559,2.041361,-0.255157,1.123019,-0.560047,9.074598,-12.369528
3.350000,-0.143218,1.088853,1.394513,0.096761,1.193183,-0.024850,0.531639,-1.469971,0.620166,2.034594,-0.164660,0.997992,-0.792851,9.025239,-12.630057
3.360000,-0.142224,1.100711,1.394296,0.102179,1.178476,-0.018601,0.551941,-1.471169,0.629509,2.025442,-0.074806,0.870359,-1.019960,8.983636,-12.849905
3.370000,-0.141174,1.112422,1.394141,0.107800,1.163762,-0.012264,0.572141,-1.471469,0.637566,2.014126,0.014838,0.740912,-1.242477,8.945715,-13.033445
3.380000,-0.140067,1.123986,1.394051,0.113622,1.149050,-0.005854,0.592216,-1.470874,0.644321,2.000610,0.104121,0.609812,-1.459608,8.911584,-13.180518
3.390000,-0.138901,1.135403,1.394024,0.119644,1.134348,0.000618,0.612146,-1.469388,0.649758,1.984954,0.193083,0.477424,-1.670563,8.881347,-13.290964
3.400000,-0.137673,1.146673,1.394063,0.125864,1.119665,0.007137,0.631908,-1.467013,0.653867,1.967222,0.281762,0.344115,-1.874547,8.855111,-13.364622
3.410000,-0.136383,1.157797,1.394167,0.132281,1.105010,0.013691,0.651482,-1.463755,0.656637,1.947382,0.370025,0.210085,-2.068067,8.837365,-13.397049
3.420000,-0.135027,1.168774,1.394337,0.138893,1.090393,0.020265,0.670850,-1.459613,0.658068,1.925768,0.458325,0.076105,-2.253363,8.823294,-13.392895
3.430000,-0.133604,1.179605,1.394573,0.145697,1.075821,0.026848,0.689992,-1.454589,0.658160,1.902344,0.546502,-0.057652,-2.429973,8.812467,-13.352523
3.440000,-0.132112,1.190290,1.394874,0.152692,1.061304,0.033424,0.708891,-1.448683,0.656917,1.877199,0.634584,-0.190826,-2.597436,8.804453,-13.276300
3.450000,-0.130550,1.200831,1.395241,0.159874,1.046850,0.039982,0.727530,-1.441897,0.654346,1.850427,0.722599,-0.323060,-2.755289,8.798820,-13.164589
3.460000,-0.128914,1.211227,1.395674,0.167242,1.032469,0.046507,0.745893,-1.434233,0.650458,1.822007,0.810419,-0.454159,-2.900046,8.798877,-13.013764
3.470000,-0.127204,1.221480,1.396171,0.174791,1.018169,0.052987,0.763966,-1.425689,0.645269,1.792325,0.898413,-0.583399,-3.034641,8.799996,-12.828670
3.480000,-0.125418,1.231591,1.396733,0.182520,1.003958,0.059408,0.781735,-1.416265,0.638797,1.761348,0.986420,-0.710621,-3.158982,8.801287,-12.610162
3.490000,-0.123553,1.241560,1.397359,0.190425,0.989846,0.065758,0.799189,-1.405961,0.631064,1.729180,1.074436,-0.835494,-3.272980,8.801863,-12.359093
3.500000,-0.121609,1.251388,1.398048,0.198503,0.975842,0.072025,0.816315,-1.394776,0.622096,1.695923,1.162451,-0.957697,-3.376542,8.800835,-12.076317
3.510000,-0.119583,1.261077,1.398799,0.206750,0.961954,0.078196,0.833103,-1.382713,0.611919,1.661571,1.250352,-1.077061,-3.466723,8.799659,-11.759053
3.520000,-0.117473,1.270628,1.399612,0.215164,0.948191,0.084260,0.849544,-1.369769,0.600566,1.626496,1.338328,-1.192942,-3.546635,8.794813,-11.412234
3.530000,-0.115279,1.280041,1.400484,0.223740,0.934561,0.090204,0.865630,-1.355946,0.588072,1.590671,1.426232,-1.305212,-3.616539,8.785122,-11.037161
3.540000,-0.112998,1.289320,1.401415,0.232475,0.921075,0.096017,0.881355,-1.341245,0.574475,1.554197,1.514010,-1.413595,-3.676691,8.769409,-10.635133
3.550000,-0.110629,1.298463,1.402404,0.241366,0.907739,0.101690,0.896712,-1.325667,0.559814,1.517169,1.601596,-1.517829,-3.727352,8.746499,-10.207449
3.560000,-0.108170,1.307475,1.403448,0.250408,0.894564,0.107210,0.911696,-1.309214,0.544131,1.479592,1.688895,-1.617786,-3.766533,8.715637,-9.752311
3.570000,-0.105620,1.316355,1.404547,0.259598,0.881558,0.112569,0.926303,-1.291890,0.527474,1.441767,1.775858,-1.712938,-3.797015,8.675173,-9.274494
3.580000,-0.102978,1.325107,1.405699,0.268933,0.868729,0.117757,0.940530,-1.273699,0.509889,1.403679,1.862363,-1.803205,-3.819330,8.623880,-8.775677
3.590000,-0.100241,1.333731,1.406902,0.278408,0.856087,0.122764,0.954376,-1.254645,0.491427,1.365406,1.948295,-1.888387,-3.834012,8.560531,-8.257537
3.600000,-0.097409,1.342229,1.408154,0.288019,0.843639,0.127582,0.967838,-1.234735,0.472139,1.327022,2.033529,-1.968297,-3.841595,8.483897,-7.721752
3.610000,-0.094480,1.350604,1.409453,0.297763,0.831395,0.132204,0.980916,-1.213976,0.452078,1.288545,2.117994,-2.042857,-3.841308,8.391019,-7.167782
3.620000,-0.091453,1.358858,1.410797,0.307636,0.819362,0.136622,0.993609,-1.192378,0.431300,1.250158,2.201375,-2.111705,-3.835149,8.282614,-6.599795
3.630000,-0.088327,1.366992,1.412185,0.317634,0.807550,0.140828,1.005919,-1.169953,0.409863,1.211859,2.283591,-2.174812,-3.823811,8.157665,-6.019742
3.640000,-0.085100,1.375009,1.413613,0.327753,0.795966,0.144817,1.017847,-1.146711,0.387823,1.173696,2.364470,-2.232067,-3.807987,8.015157,-5.429574
3.650000,-0.081772,1.382912,1.415080,0.337990,0.784619,0.148583,1.029394,-1.122668,0.365241,1.135712,2.443832,-2.283377,-3.788371,7.854075,-4.831240
3.660000,-0.078340,1.390703,1.416584,0.348340,0.773515,0.152120,1.040562,-1.097839,0.342176,1.097932,2.521635,-2.328707,-3.765472,7.669640,-4.225783
3.670000,-0.074805,1.398383,1.418122,0.358800,0.762664,0.155425,1.051353,-1.072242,0.318687,1.060402,2.597326,-2.367919,-3.740190,7.465060,-3.616172
3.680000,-0.071164,1.405957,1.419692,0.369366,0.752073,0.158493,1.061771,-1.045899,0.294838,1.023134,2.670867,-2.401023,-3.713241,7.239780,-3.004468
3.690000,-0.067417,1.413426,1.421291,0.380034,0.741749,0.161320,1.071817,-1.018833,0.270687,0.986140,2.742050,-2.428008,-3.685339,6.993245,-2.392732
3.700000,-0.063563,1.420793,1.422917,0.390801,0.731699,0.163906,1.081494,-0.991067,0.246298,0.949428,2.810659,-2.448884,-3.657200,6.724901,-1.783026
3.710000,-0.059601,1.428060,1.424568,0.401663,0.721930,0.166246,1.090807,-0.962626,0.221730,0.913032,2.876684,-2.463650,-3.630482,6.428873,-1.178228
3.720000,-0.055529,1.435232,1.426241,0.412616,0.712448,0.168340,1.099756,-0.933543,0.197045,0.876857,2.939400,-2.472433,-3.604843,6.110577,-0.579483
3.730000,-0.051348,1.442310,1.427934,0.423656,0.703261,0.170187,1.108344,-0.903849,0.172301,0.840930,2.998822,-2.475266,-3.580885,5.770109,0.011250
3.740000,-0.047056,1.449298,1.429644,0.434781,0.694373,0.171786,1.116575,-0.873579,0.147559,0.805231,3.054729,-2.472241,-3.559208,5.407568,0.592008
3.750000,-0.042652,1.456199,1.431369,0.445987,0.685791,0.173138,1.124450,-0.842767,0.122876,0.769736,3.106900,-2.463466,-3.540412,5.023048,1.160831
3.760000,-0.038136,1.463015,1.433106,0.457269,0.677519,0.174244,1.131971,-0.811451,0.098310,0.734478,3.155374,-2.448962,-3.526793,4.610156,1.713004
3.770000,-0.033506,1.469750,1.434853,0.468625,0.669563,0.175105,1.139140,-0.779674,0.073915,0.699263,3.199323,-2.429135,-3.517049,4.176274,2.249655
3.780000,-0.028763,1.476408,1.436608,0.480051,0.661927,0.175723,1.145957,-0.747479,0.049745,0.664123,3.238832,-2.404026,-3.511575,3.722294,2.769162
3.790000,-0.023905,1.482990,1.438367,0.491543,0.654615,0.176100,1.152422,-0.714913,0.025851,0.629016,3.273705,-2.373814,-3.510762,3.249107,3.269901
3.800000,-0.018932,1.489501,1.440129,0.503098,0.647630,0.176241,1.158537,-0.682021,0.002285,0.593891,3.303753,-2.338696,-3.515004,2.757604,3.750247
3.810000,-0.013843,1.495944,1.441891,0.514712,0.640976,0.176147,1.164302,-0.648852,-0.020905,0.558844,3.328983,-2.298700,-3.528387,2.244020,4.203968
3.820000,-0.008638,1.502322,1.443651,0.526383,0.634654,0.175824,1.169713,-0.615459,-0.043675,0.523470,3.348788,-2.254487,-3.547160,1.714475,4.634613
3.830000,-0.003315,1.508638,1.445407,0.538106,0.628667,0.175275,1.174770,-0.581894,-0.065981,0.487883,3.363224,-2.206088,-3.571263,1.170429,5.041122
3.840000,0.002125,1.514896,1.447156,0.549877,0.623016,0.174506,1.179470,-0.548213,-0.087783,0.452027,3.372154,-2.153749,-3.600638,0.613345,5.422436
3.850000,0.007682,1.521099,1.448896,0.561694,0.617703,0.173522,1.183810,-0.514470,-0.109044,0.415852,3.375453,-2.097727,-3.635224,0.044684,5.777495
3.860000,0.013359,1.527251,1.450625,0.573552,0.612727,0.172327,1.187786,-0.480721,-0.129724,0.379354,3.373149,-2.038053,-3.676175,-0.537519,6.099261
3.870000,0.019154,1.533355,1.452342,0.585448,0.608088,0.170929,1.191395,-0.447027,-0.149794,0.342367,3.364828,-1.975567,-3.722072,-1.127956,6.393385
3.880000,0.025068,1.539414,1.454043,0.597379,0.603786,0.169333,1.194632,-0.413445,-0.169226,0.304896,3.350569,-1.910279,-3.772708,-1.724743,6.659539
3.890000,0.031101,1.545432,1.455728,0.609340,0.599819,0.167547,1.197491,-0.380035,-0.187992,0.266897,3.330318,-1.842471,-3.827875,-2.326000,6.897396
3.900000,0.037255,1.551412,1.457394,0.621327,0.596185,0.165576,1.199968,-0.346858,-0.206068,0.228325,3.304040,-1.772426,-3.887365,-2.929844,7.106628
3.910000,0.043528,1.557357,1.459039,0.633338,0.592880,0.163428,1.202055,-0.313970,-0.223431,0.189075,3.272127,-1.700177,-3.949422,-3.544707,7.280414
3.920000,0.049921,1.563270,1.460662,0.645367,0.589904,0.161110,1.203747,-0.281436,-0.240066,0.149253,3.233615,-1.626623,-4.015577,-4.157131,7.425716
3.930000,0.056435,1.569156,1.462261,0.657411,0.587250,0.158629,1.205038,-0.249318,-0.255959,0.108750,3.189003,-1.551756,-4.085814,-4.763971,7.543000
3.940000,0.063070,1.575016,1.463834,0.669466,0.584916,0.155993,1.205920,-0.217676,-0.271098,0.067523,3.138365,-1.475855,-4.160116,-5.362083,7.632735
3.950000,0.069825,1.580855,1.465380,0.681528,0.582895,0.153209,1.206386,-0.186571,-0.285473,0.025534,3.081801,-1.399192,-4.238464,-5.948322,7.695389
3.960000,0.076700,1.586675,1.466897,0.693593,0.581183,0.150286,1.206430,-0.156063,-0.299077,-0.017066,3.019133,-1.321805,-4.325712,-6.511578,7.725594
3.970000,0.083697,1.592480,1.468385,0.705655,0.579772,0.147230,1.206042,-0.126207,-0.311909,-0.060774,2.951271,-1.244505,-4.416376,-7.057648,7.730366
3.980000,0.090813,1.598272,1.469842,0.717712,0.578656,0.144050,1.205212,-0.097056,-0.323968,-0.105403,2.878044,-1.167279,-4.509842,-7.584361,7.710889
3.990000,0.098051,1.604054,1.471266,0.729758,0.577828,0.140754,1.203930,-0.068663,-0.335256,-0.150978,2.799656,-1.090364,-4.605497,-8.089550,7.668344
4.000000,0.105408,1.609829,1.472656,0.741789,0.577280,0.137348,1.202189,-0.041079,-0.345777,-0.197519,2.716332,-1.013985,-4.702725,-8.571043,7.603912
4.010000,0.112886,1.615600,1.474012,0.753800,0.577004,0.133841,1.199979,-0.014360,-0.355536,-0.244848,2.627554,-0.938226,-4.805677,-9.007290,7.515541
4.020000,0.120484,1.621370,1.475333,0.765787,0.576990,0.130240,1.197288,0.011458,-0.364545,-0.293419,2.535407,-0.863593,-4.908393,-9.417877,7.408044
4.030000,0.128202,1.627141,1.476617,0.777744,0.577230,0.126552,1.194107,0.036335,-0.372812,-0.343011,2.439281,-0.790124,-5.009675,-9.803008,7.283000
4.040000,0.136039,1.632916,1.477864,0.789668,0.577714,0.122786,1.190425,0.060231,-0.380351,-0.393603,2.339431,-0.717986,-5.108327,-10.162887,7.141986
4.050000,0.143995,1.638696,1.479072,0.801551,0.578431,0.118947,1.186232,0.083112,-0.387177,-0.445164,2.236107,-0.647332,-5.203153,-10.497718,6.986580
4.060000,0.152070,1.644485,1.480242,0.813391,0.579372,0.115044,1.181515,0.104945,-0.393304,-0.497977,2.129816,-0.578296,-5.284685,-10.814191,6.818314
4.070000,0.160263,1.650284,1.481373,0.825180,0.580526,0.111084,1.176270,0.125698,-0.398748,-0.551210,2.020197,-0.511001,-5.361009,-11.105230,6.638820
4.080000,0.168573,1.656096,1.482464,0.836914,0.581882,0.107072,1.170488,0.145340,-0.403530,-0.605179,1.907798,-0.445551,-5.431940,-11.370245,6.449680
4.090000,0.177001,1.661923,1.483514,0.848588,0.583429,0.103015,1.164164,0.163846,-0.407666,-0.659830,1.792881,-0.382034,-5.497295,-11.608646,6.252479
4.100000,0.185545,1.667765,1.484524,0.860196,0.585156,0.098921,1.157290,0.181190,-0.411177,-0.715106,1.675716,-0.320523,-5.556889,-11.819843,6.048801
4.110000,0.194205,1.673626,1.485493,0.871732,0.587049,0.094794,1.149859,0.197353,-0.414084,-0.771058,1.556525,-0.261160,-5.607756,-12.001934,5.842392
4.120000,0.202979,1.679507,1.486420,0.883191,0.589099,0.090641,1.141867,0.212315,-0.416407,-0.827366,1.435713,-0.203784,-5.652833,-12.155801,5.632409
4.130000,0.211868,1.685409,1.487305,0.894567,0.591292,0.086467,1.133310,0.226062,-0.418167,-0.884096,1.313505,-0.148520,-5.692278,-12.281015,5.420172
4.140000,0.220870,1.691333,1.488149,0.905855,0.593616,0.082279,1.124184,0.238582,-0.419385,-0.941193,1.190189,-0.095384,-5.726246,-12.377145,5.207000
4.150000,0.229985,1.697281,1.488951,0.917049,0.596059,0.078082,1.114485,0.249863,-0.420082,-0.998603,1.066060,-0.044378,-5.754894,-12.443763,4.994213
4.160000,0.239211,1.703255,1.489711,0.928143,0.598609,0.073879,1.104212,0.259896,-0.420281,-1.056126,0.940978,0.004366,-5.782125,-12.469431,4.786688
4.170000,0.248548,1.709254,1.490429,0.939131,0.601253,0.069678,1.093362,0.268683,-0.420001,-1.114060,0.816277,0.051205,-5.803890,-12.466074,4.581750
4.180000,0.257993,1.715280,1.491104,0.950008,0.603979,0.065481,1.081930,0.276222,-0.419264,-1.172184,0.691750,0.096012,-5.819885,-12.434612,4.380283
4.190000,0.267547,1.721334,1.491738,0.960768,0.606773,0.061294,1.069917,0.282519,-0.418088,-1.230438,0.567675,0.138825,-5.829807,-12.375964,4.183171
4.200000,0.277208,1.727416,1.492330,0.971405,0.609625,0.057120,1.057322,0.287578,-0.416494,-1.288759,0.444319,0.179693,-5.833356,-12.291046,3.991297
4.210000,0.286975,1.733526,1.492881,0.981912,0.612521,0.052965,1.044141,0.291409,-0.414502,-1.347173,0.321926,0.218514,-5.827943,-12.180445,3.809526
4.220000,0.296846,1.739666,1.493390,0.992286,0.615449,0.048832,1.030378,0.294021,-0.412129,-1.405398,0.200776,0.255728,-5.815829,-12.045452,3.634273
4.230000,0.306820,1.745835,1.493857,1.002518,0.618397,0.044724,1.016034,0.295429,-0.409393,-1.463467,0.081095,0.291223,-5.796992,-11.887028,3.465934
4.240000,0.316896,1.752034,1.494284,1.012604,0.621353,0.040645,1.001110,0.295649,-0.406310,-1.521315,-0.036890,0.325071,-5.771409,-11.706132,3.304908
4.250000,0.327072,1.758262,1.494670,1.022538,0.624306,0.036599,0.985609,0.294698,-0.402897,-1.578873,-0.152956,0.357346,-5.739056,-11.503723,3.151588
4.260000,0.337346,1.764520,1.495016,1.032315,0.627244,0.032588,0.969533,0.292596,-0.399170,-1.636111,-0.266930,0.387988,-5.698956,-11.279891,3.009941
4.270000,0.347718,1.770807,1.495322,1.041927,0.630154,0.028616,0.952888,0.289367,-0.395142,-1.692872,-0.378528,0.417413,-5.652158,-11.036572,2.876357
4.280000,0.358184,1.777123,1.495589,1.051370,0.633027,0.024686,0.935677,0.285034,-0.390826,-1.749132,-0.487600,0.445542,-5.598755,-10.774831,2.750796
4.290000,0.368744,1.783468,1.495816,1.060639,0.635851,0.020801,0.917907,0.279624,-0.386235,-1.804826,-0.593967,0.472455,-5.538841,-10.495733,2.633217
4.300000,0.379396,1.789840,1.496005,1.069727,0.638616,0.016963,0.899583,0.273164,-0.381381,-1.859888,-0.697460,0.498233,-5.472509,-10.200343,2.523580
4.310000,0.390138,1.796240,1.496156,1.078629,0.641311,0.013174,0.880711,0.265685,-0.376275,-1.914270,-0.797934,0.522849,-5.399475,-9.889447,2.424481
4.320000,0.400968,1.802666,1.496269,1.087339,0.643927,0.009438,0.861300,0.257216,-0.370927,-1.967873,-0.895215,0.546630,-5.320257,-9.564424,2.332919
4.330000,0.411884,1.809118,1.496345,1.095853,0.646452,0.005756,0.841357,0.247791,-0.365345,-2.020655,-0.989179,0.569531,-5.234995,-9.226377,2.248532
4.340000,0.422885,1.815595,1.496384,1.104165,0.648879,0.002132,0.820890,0.237444,-0.359539,-2.072554,-1.079702,0.591623,-5.143830,-8.876405,2.170956
4.350000,0.433967,1.822095,1.496387,1.112269,0.651198,-0.001434,0.799909,0.226209,-0.353515,-2.123512,-1.166671,0.612972,-5.046901,-8.515608,2.099828
4.360000,0.445129,1.828618,1.496355,1.120161,0.653401,-0.004938,0.778423,0.214123,-0.347282,-2.173478,-1.249966,0.633582,-4.944209,-8.145495,2.036260
4.370000,0.456370,1.835163,1.496289,1.127836,0.655478,-0.008379,0.756443,0.201222,-0.340846,-2.222384,-1.329534,0.653650,-4.836050,-7.766707,1.978232
4.380000,0.467685,1.841727,1.496188,1.135288,0.657423,-0.011754,0.733979,0.187545,-0.334211,-2.270182,-1.405275,0.673163,-4.722581,-7.380295,1.925201
4.390000,0.479075,1.848311,1.496054,1.142514,0.659227,-0.015062,0.711043,0.173130,-0.327384,-2.316819,-1.477118,0.692169,-4.603960,-6.987310,1.876623
4.400000,0.490535,1.854911,1.495887,1.149508,0.660883,-0.018301,0.687647,0.158016,-0.320369,-2.362244,-1.545003,0.710708,-4.480343,-6.588801,1.831954
4.410000,0.502064,1.861528,1.495688,1.156265,0.662385,-0.021469,0.663802,0.142243,-0.313171,-2.406409,-1.608846,0.728807,-4.351898,-6.186661,1.790949
4.420000,0.513659,1.868159,1.495458,1.162782,0.663726,-0.024564,0.639523,0.125852,-0.305794,-2.449266,-1.668687,0.746523,-4.218770,-5.780995,1.752729
4.430000,0.525319,1.874802,1.495197,1.169054,0.664900,-0.027584,0.614821,0.108883,-0.298242,-2.490769,-1.724457,0.763869,-4.081115,-5.372752,1.716712
4.440000,0.537040,1.881456,1.494906,1.175077,0.665902,-0.030528,0.589712,0.091377,-0.290518,-2.530874,-1.776136,0.780863,-3.939089,-4.962877,1.682319
4.450000,0.548819,1.888119,1.494587,1.180847,0.666726,-0.033394,0.564209,0.073374,-0.282626,-2.569537,-1.823712,0.797519,-3.792847,-4.552319,1.648968
4.460000,0.560656,1.894790,1.494239,1.186360,0.667367,-0.036180,0.538326,0.054917,-0.274569,-2.606713,-1.867138,0.813870,-3.642645,-4.143170,1.615413
4.470000,0.572546,1.901466,1.493863,1.191613,0.667823,-0.038885,0.512080,0.036045,-0.266350,-2.642372,-1.906528,0.829857,-3.488527,-3.735093,1.581821
4.480000,0.584487,1.908146,1.493461,1.196601,0.668087,-0.041507,0.485484,0.016800,-0.257973,-2.676471,-1.941846,0.845505,-3.330637,-3.328893,1.547693
4.490000,0.596477,1.914827,1.493034,1.201321,0.668158,-0.044044,0.458555,-0.002778,-0.249441,-2.708973,-1.973115,0.860807,-3.169117,-2.925379,1.512531
4.500000,0.608513,1.921508,1.492581,1.205771,0.668031,-0.046495,0.431310,-0.022649,-0.240758,-2.739842,-2.000365,0.875750,-3.004112,-2.525357,1.475835
4.510000,0.620591,1.928187,1.492104,1.209946,0.667704,-0.048859,0.403764,-0.042772,-0.231927,-2.769041,-2.023582,0.890369,-2.835838,-2.130996,1.435804
4.520000,0.632711,1.934862,1.491604,1.213845,0.667174,-0.051133,0.375935,-0.063108,-0.222952,-2.796545,-2.042941,0.904517,-2.664356,-1.741575,1.393401
4.530000,0.644867,1.941530,1.491082,1.217464,0.666441,-0.053317,0.347839,-0.083618,-0.213838,-2.822318,-2.058433,0.918228,-2.489802,-1.357734,1.348286
4.540000,0.657059,1.948190,1.490538,1.220801,0.665502,-0.055409,0.319494,-0.104264,-0.204589,-2.846331,-2.070116,0.931472,-2.312310,-0.980113,1.300120
4.550000,0.669282,1.954839,1.489974,1.223853,0.664355,-0.057409,0.290918,-0.125008,-0.195210,-2.868555,-2.078058,0.944219,-2.132017,-0.609353,1.248564
4.560000,0.681535,1.961476,1.489390,1.226619,0.663001,-0.059313,0.262129,-0.145812,-0.185705,-2.888962,-2.082271,0.956495,-1.949062,-0.247546,1.191673
4.570000,0.693814,1.968098,1.488788,1.229095,0.661439,-0.061122,0.233145,-0.166641,-0.176082,-2.907528,-2.082970,0.968111,-1.763574,0.106297,1.130910
4.580000,0.706116,1.974704,1.488168,1.231281,0.659668,-0.062834,0.203985,-0.187460,-0.166345,-2.924226,-2.080173,0.979099,-1.575687,0.451715,1.066130
4.590000,0.718438,1.981291,1.487531,1.233174,0.657690,-0.064449,0.174667,-0.208233,-0.156502,-2.939034,-2.073966,0.989420,-1.385533,0.788244,0.997192
4.600000,0.730778,1.987857,1.486879,1.234774,0.655504,-0.065964,0.145211,-0.228928,-0.146559,-2.951929,-2.064439,0.999029,-1.193247,1.115423,0.923951
4.610000,0.743133,1.994401,1.486213,1.236078,0.653112,-0.067380,0.115635,-0.249511,-0.136523,-2.962895,-2.051632,1.007947,-0.998896,1.431331,0.844677
4.620000,0.755499,2.000919,1.485532,1.237086,0.650514,-0.068694,0.085959,-0.269950,-0.126403,-2.971904,-2.035781,1.015979,-0.802689,1.737142,0.761009
4.630000,0.767874,2.007410,1.484839,1.237797,0.647713,-0.069908,0.056203,-0.290216,-0.116207,-2.978943,-2.016924,1.023152,-0.604769,2.032572,0.672999
4.640000,0.780254,2.013872,1.484134,1.238210,0.644711,-0.071018,0.026387,-0.310279,-0.105943,-2.983994,-1.995165,1.029424,-0.405275,2.317337,0.580699
4.650000,0.792637,2.020304,1.483419,1.238325,0.641509,-0.072026,-0.003470,-0.330110,-0.095621,-2.987043,-1.970614,1.034752,-0.204352,2.591152,0.484160
4.660000,0.805019,2.026702,1.482694,1.238141,0.638109,-0.072931,-0.033347,-0.349682,-0.085251,-2.988082,-1.943325,1.039146,-0.002015,2.852352,0.382101
4.670000,0.817399,2.033065,1.481961,1.237658,0.634516,-0.073731,-0.063225,-0.368968,-0.074842,-2.987086,-1.913543,1.042441,0.201452,3.102204,0.276070
4.680000,0.829772,2.039392,1.481220,1.236876,0.630731,-0.074427,-0.093082,-0.387944,-0.064406,-2.984050,-1.881319,1.044655,0.405893,3.340593,0.166281
4.690000,0.842135,2.045679,1.480472,1.235796,0.626758,-0.075019,-0.122899,-0.406587,-0.053953,-2.978965,-1.846770,1.045754,0.611150,3.567405,0.052949
4.700000,0.854487,2.051926,1.479720,1.234418,0.622600,-0.075506,-0.152654,-0.424872,-0.043494,-2.971824,-1.810010,1.045703,0.817066,3.782523,-0.063712
4.710000,0.866823,2.058131,1.478963,1.232743,0.618262,-0.075889,-0.182329,-0.442779,-0.033042,-2.962628,-1.771110,1.044507,1.023630,3.984609,-0.184415
4.720000,0.879140,2.064291,1.478202,1.230772,0.613746,-0.076167,-0.211900,-0.460288,-0.022608,-2.951357,-1.730303,1.042047,1.230521,4.174923,-0.307903
4.730000,0.891437,2.070405,1.477440,1.228506,0.609057,-0.076341,-0.241349,-0.477379,-0.012205,-2.938017,-1.687651,1.038340,1.437561,4.353500,-0.433847
4.740000,0.903710,2.076471,1.476676,1.225946,0.604200,-0.076412,-0.270654,-0.494035,-0.001846,-2.922606,-1.643272,1.033363,1.644576,4.520374,-0.561920
4.750000,0.915955,2.082488,1.475912,1.223093,0.599178,-0.076378,-0.299794,-0.510239,0.008458,-2.905126,-1.597282,1.027096,1.851390,4.675582,-0.691793
4.760000,0.928170,2.088454,1.475149,1.219950,0.593997,-0.076243,-0.328749,-0.525976,0.018692,-2.885585,-1.549759,1.019541,2.057953,4.818158,-0.823606
4.770000,0.940353,2.094368,1.474387,1.216519,0.588660,-0.076005,-0.357499,-0.541230,0.028844,-2.863975,-1.500913,1.010641,2.263949,4.949261,-0.956505
4.780000,0.952500,2.100227,1.473629,1.212801,0.583174,-0.075666,-0.386022,-0.555990,0.038901,-2.840308,-1.450812,1.000408,2.469186,5.069046,-1.090103
4.790000,0.964608,2.106031,1.472874,1.208799,0.577542,-0.075227,-0.414298,-0.570242,0.048848,-2.814594,-1.399569,0.988838,2.673475,5.177671,-1.224014
4.800000,0.976675,2.111778,1.472125,1.204516,0.571771,-0.074690,-0.442307,-0.583978,0.058673,-2.786842,-1.347295,0.975928,2.876623,5.275294,-1.357852
4.810000,0.988698,2.117466,1.471381,1.199954,0.565864,-0.074054,-0.470028,-0.597185,0.068362,-2.757068,-1.294070,0.961684,3.078503,5.361345,-1.491263
4.820000,1.000673,2.123094,1.470644,1.195117,0.559829,-0.073323,-0.497442,-0.609856,0.077902,-2.725280,-1.240071,0.946107,3.278853,5.436797,-1.623825
4.830000,1.012599,2.128662,1.469915,1.190006,0.553669,-0.072497,-0.524527,-0.621984,0.087280,-2.691497,-1.185369,0.929211,3.477476,5.501898,-1.755148
4.840000,1.024472,2.134167,1.469194,1.184627,0.547391,-0.071578,-0.551265,-0.633562,0.096482,-2.655737,-1.130067,0.911010,3.674173,5.556894,-1.884843
4.850000,1.036291,2.139609,1.468483,1.178982,0.541000,-0.070568,-0.577635,-0.644584,0.105496,-2.618021,-1.074264,0.891521,3.868745,5.602030,-2.012520
4.860000,1.048051,2.144987,1.467783,1.173076,0.534501,-0.069469,-0.603619,-0.655045,0.114308,-2.578369,-1.018040,0.870754,4.060964,5.637112,-2.137454
4.870000,1.059751,2.150299,1.467094,1.166911,0.527901,-0.068282,-0.629196,-0.664944,0.122907,-2.536809,-0.961533,0.848766,4.250665,5.662882,-2.259631
4.880000,1.071389,2.155545,1.466418,1.160493,0.521204,-0.067011,-0.654349,-0.674275,0.131279,-2.493365,-0.904813,0.825572,4.437653,5.679642,-2.378701
4.890000,1.082960,2.160723,1.465754,1.153826,0.514417,-0.065657,-0.679058,-0.683039,0.139414,-2.448065,-0.847969,0.801204,4.621735,5.687692,-2.494317
4.900000,1.094464,2.165833,1.465105,1.146914,0.507545,-0.064224,-0.703304,-0.691235,0.147300,-2.400940,-0.791087,0.775698,4.802714,5.687333,-2.606128
4.910000,1.105898,2.170874,1.464470,1.139761,0.500594,-0.062712,-0.727070,-0.698861,0.154924,-2.352017,-0.734243,0.749071,4.980271,5.678696,-2.713188
4.920000,1.117259,2.175844,1.463851,1.132374,0.493570,-0.061126,-0.750339,-0.705920,0.162278,-2.301341,-0.677531,0.721423,5.154352,5.662272,-2.815819
4.930000,1.128545,2.180745,1.463248,1.124756,0.486478,-0.059468,-0.773091,-0.712412,0.169349,-2.248942,-0.621022,0.692771,5.324777,5.638384,-2.913746
4.940000,1.139753,2.185574,1.462662,1.116914,0.479324,-0.057740,-0.795312,-0.718341,0.176130,-2.194858,-0.564788,0.663164,5.491367,5.607353,-3.006694
4.950000,1.150882,2.190331,1.462093,1.108852,0.472113,-0.055946,-0.816983,-0.723709,0.182610,-2.139128,-0.508898,0.632654,5.653943,5.569501,-3.094386
4.960000,1.161929,2.195016,1.461543,1.100576,0.464851,-0.054089,-0.838089,-0.728521,0.188780,-2.081784,-0.453421,0.601265,5.812101,5.525197,-3.175784
4.970000,1.172893,2.199628,1.461012,1.092092,0.457544,-0.052172,-0.858614,-0.732779,0.194632,-2.022891,-0.398417,0.569124,5.965914,5.474710,-3.251470
4.980000,1.183771,2.204167,1.460500,1.083406,0.450197,-0.050197,-0.878542,-0.736491,0.200160,-1.962481,-0.343946,0.536255,6.115229,5.418357,-3.321259
4.990000,1.194560,2.208632,1.460008,1.074523,0.442816,-0.048169,-0.897858,-0.739660,0.205355,-1.900601,-0.290068,0.502719,6.259894,5.356452,-3.384972
5.000000,1.205260,2.213023,1.459537,1.065451,0.435406,-0.046091,-0.916549,-0.742294,0.210212,-1.837299,-0.236835,0.468577,6.399757,5.289312,-3.442424
5.010000,1.215869,2.217340,1.459086,1.056194,0.427972,-0.043966,-0.934600,-0.744399,0.214724,-1.772612,-0.184307,0.433859,6.534399,5.217471,-3.492609
5.020000,1.226384,2.221582,1.458657,1.046761,0.420520,-0.041798,-0.951997,-0.745983,0.218888,-1.706616,-0.132511,0.398709,6.663968,5.141001,-3.536271
5.030000,1.236803,2.225750,1.458251,1.037157,0.413054,-0.039590,-0.968728,-0.747052,0.222697,-1.639350,-0.081501,0.363156,6.788345,5.060191,-3.573328
5.040000,1.247126,2.229843,1.457866,1.027389,0.405580,-0.037345,-0.984780,-0.747616,0.226150,-1.570867,-0.031320,0.327265,6.907409,4.975329,-3.603698
5.050000,1.257351,2.233862,1.457504,1.017463,0.398104,-0.035068,-1.000141,-0.747682,0.229242,-1.501220,0.017993,0.291104,7.021041,4.886706,-3.627302
5.060000,1.267475,2.237805,1.457165,1.007388,0.390628,-0.032762,-1.014800,-0.747259,0.231971,-1.430453,0.066390,0.254710,7.128830,4.794931,-3.643243
5.070000,1.277498,2.241674,1.456849,0.997170,0.383160,-0.030430,-1.028747,-0.746357,0.234336,-1.358649,0.113867,0.218226,7.230985,4.699934,-3.652354
5.080000,1.287418,2.245469,1.456556,0.986816,0.375703,-0.028076,-1.041970,-0.744985,0.236335,-1.285852,0.160378,0.181685,7.327421,4.601964,-3.654653
5.090000,1.297234,2.249188,1.456287,0.976333,0.368262,-0.025704,-1.054461,-0.743153,0.237969,-1.212120,0.205897,0.145156,7.418055,4.501273,-3.650158
5.100000,1.306944,2.252834,1.456042,0.965729,0.360841,-0.023318,-1.066209,-0.740870,0.239238,-1.137511,0.250396,0.108705,7.502803,4.398110,-3.638887
5.110000,1.316548,2.256405,1.455821,0.955011,0.353446,-0.020921,-1.077208,-0.738148,0.240144,-1.062073,0.293837,0.072371,7.581309,4.293082,-3.620113
5.120000,1.326044,2.259903,1.455624,0.944187,0.346080,-0.018516,-1.087448,-0.734997,0.240687,-0.985893,0.336235,0.036291,7.653796,4.186039,-3.594690
5.130000,1.335431,2.263327,1.455450,0.933265,0.338747,-0.016108,-1.096924,-0.731427,0.240870,-0.909018,0.377552,0.000499,7.720213,4.077187,-3.562729
5.140000,1.344709,2.266678,1.455301,0.922251,0.331453,-0.013700,-1.105627,-0.727450,0.240698,-0.831509,0.417773,-0.034942,7.780510,3.966732,-3.524339
5.150000,1.353876,2.269956,1.455176,0.911155,0.324200,-0.011295,-1.113552,-0.723075,0.240173,-0.753428,0.456882,-0.069967,7.834637,3.854881,-3.479630
5.160000,1.362932,2.273162,1.455075,0.899983,0.316992,-0.008898,-1.120693,-0.718316,0.239300,-0.674830,0.494852,-0.104539,7.882363,3.742204,-3.428084
5.170000,1.371876,2.276296,1.454998,0.888744,0.309835,-0.006511,-1.127047,-0.713182,0.238084,-0.595793,0.531706,-0.138536,7.923841,3.628498,-3.370515
5.180000,1.380707,2.279359,1.454945,0.877445,0.302730,-0.004137,-1.132608,-0.707686,0.236531,-0.516374,0.567419,-0.171929,7.959042,3.513925,-3.307108
5.190000,1.389424,2.282351,1.454916,0.866094,0.295682,-0.001781,-1.137373,-0.701838,0.234648,-0.436634,0.601983,-0.204660,7.987939,3.398647,-3.238051
5.200000,1.398028,2.285273,1.454910,0.854700,0.288694,0.000555,-1.141340,-0.695650,0.232440,-0.356636,0.635390,-0.236672,8.010504,3.282825,-3.163530
5.210000,1.406518,2.288125,1.454927,0.843270,0.281770,0.002867,-1.144505,-0.689134,0.229916,-0.276442,0.667624,-0.267932,8.026630,3.166959,-3.083244
5.220000,1.414894,2.290908,1.454967,0.831812,0.274913,0.005152,-1.146868,-0.682301,0.227084,-0.196121,0.698714,-0.298342,8.036376,3.050831,-2.997925
5.230000,1.423154,2.293624,1.455030,0.820335,0.268125,0.007407,-1.148428,-0.675163,0.223953,-0.115735,0.728641,-0.327875,8.039725,2.934562,-2.907821
5.240000,1.431300,2.296271,1.455115,0.808846,0.261410,0.009630,-1.149183,-0.667732,0.220530,-0.035348,0.757405,-0.356483,8.036658,2.818272,-2.813176
5.250000,1.439331,2.298852,1.455222,0.797354,0.254771,0.011817,-1.149135,-0.660019,0.216826,0.044976,0.785006,-0.384124,8.027156,2.702081,-2.714236
5.260000,1.447247,2.301367,1.455351,0.785866,0.248211,0.013966,-1.148284,-0.652036,0.212851,0.125171,0.811435,-0.410768,8.011249,2.586407,-2.610919
5.270000,1.455049,2.303817,1.455501,0.774391,0.241732,0.016073,-1.146632,-0.643794,0.208614,0.205177,0.836722,-0.436344,7.988864,2.471036,-2.503839
5.280000,1.462735,2.306202,1.455672,0.762937,0.235336,0.018137,-1.144181,-0.635305,0.204127,0.284927,0.860857,-0.460833,7.959977,2.356053,-2.393283
5.290000,1.470308,2.308524,1.455864,0.751510,0.229026,0.020155,-1.140934,-0.626581,0.199401,0.364355,0.883845,-0.484199,7.924564,2.241542,-2.279537
5.300000,1.477766,2.310783,1.456075,0.740120,0.222805,0.022124,-1.136895,-0.617632,0.194447,0.443397,0.905690,-0.506414,7.882598,2.127586,-2.162888
5.310000,1.485110,2.312980,1.456306,0.728775,0.216674,0.024043,-1.132068,-0.608471,0.189277,0.521978,0.926389,-0.527455,7.834231,2.014523,-2.043463
5.320000,1.492341,2.315116,1.456556,0.717482,0.210636,0.025909,-1.126458,-0.599108,0.183902,0.600051,0.945972,-0.547282,7.779242,1.902153,-1.921727
5.330000,1.499460,2.317193,1.456824,0.706248,0.204693,0.027721,-1.120069,-0.589555,0.178335,0.677541,0.964434,-0.565883,7.717586,1.790529,-1.797984
5.340000,1.506466,2.319211,1.457110,0.695083,0.198846,0.029475,-1.112909,-0.579823,0.172589,0.754381,0.981785,-0.583236,7.649218,1.679705,-1.672542
5.350000,1.513362,2.321170,1.457413,0.683993,0.193097,0.031172,-1.104984,-0.569923,0.166675,0.830503,0.998031,-0.599329,7.574091,1.569733,-1.545704
5.360000,1.520147,2.323073,1.457733,0.672986,0.187448,0.032808,-1.096302,-0.559867,0.160606,0.905829,1.013174,-0.614146,7.492440,1.460891,-1.417792
5.370000,1.526822,2.324920,1.458069,0.662069,0.181900,0.034383,-1.086870,-0.549664,0.154396,0.980316,1.027242,-0.627681,7.403905,1.352980,-1.289095
5.380000,1.533388,2.326711,1.458421,0.651251,0.176455,0.035896,-1.076698,-0.539325,0.148057,1.053884,1.040237,-0.639927,7.308406,1.246026,-1.159916
5.390000,1.539847,2.328449,1.458787,0.640538,0.171114,0.037344,-1.065796,-0.528862,0.141602,1.126461,1.052166,-0.650879,7.205864,1.140056,-1.030560
5.400000,1.546199,2.330134,1.459168,0.629937,0.165878,0.038727,-1.054173,-0.518285,0.135044,1.197977,1.063041,-0.660538,7.096197,1.035095,-0.901330
5.410000,1.552446,2.331767,1.459561,0.619457,0.160749,0.040045,-1.041840,-0.507605,0.128396,1.268347,1.072863,-0.668900,6.979673,0.931371,-0.772710
5.420000,1.558589,2.333349,1.459968,0.609103,0.155726,0.041295,-1.028810,-0.496832,0.121670,1.337531,1.081663,-0.675987,6.855823,0.828684,-0.644802
5.430000,1.564629,2.334882,1.460387,0.598883,0.150812,0.042478,-1.015094,-0.485975,0.114880,1.405439,1.089441,-0.681799,6.724524,0.727034,-0.517888
5.440000,1.570567,2.336366,1.460818,0.588803,0.146007,0.043593,-1.000705,-0.475046,0.108038,1.471996,1.096207,-0.686349,6.585653,0.626423,-0.392249
5.450000,1.576405,2.337802,1.461259,0.578871,0.141312,0.044639,-0.985659,-0.464054,0.101157,1.537126,1.101973,-0.689649,6.439087,0.526852,-0.268167
5.460000,1.582145,2.339192,1.461710,0.569092,0.136726,0.045616,-0.969968,-0.453010,0.094250,1.600737,1.106740,-0.691705,6.285074,0.428507,-0.146253
5.470000,1.587788,2.340537,1.462171,0.559474,0.132251,0.046524,-0.953649,-0.441923,0.087327,1.662784,1.110538,-0.692567,6.123076,0.331183,-0.026419
5.480000,1.593335,2.341838,1.462640,0.550021,0.127888,0.047362,-0.936718,-0.430803,0.080402,1.723171,1.113367,-0.692241,5.952925,0.234857,0.091094
5.490000,1.598789,2.343095,1.463118,0.540741,0.123636,0.048132,-0.919191,-0.419659,0.073486,1.781815,1.115238,-0.690753,5.774454,0.139508,0.206043
5.500000,1.604151,2.344311,1.463603,0.531639,0.119495,0.048832,-0.901088,-0.408501,0.066591,1.838632,1.116161,-0.688130,5.587495,0.045115,0.318188
5.510000,1.609422,2.345486,1.464094,0.522721,0.115466,0.049464,-0.882425,-0.397339,0.059728,1.893523,1.116137,-0.684382,5.392220,-0.048174,0.426840
5.520000,1.614606,2.346621,1.464592,0.513993,0.111548,0.050027,-0.863224,-0.386181,0.052907,1.946432,1.115192,-0.679584,5.188080,-0.140571,0.532260
5.530000,1.619703,2.347717,1.465095,0.505459,0.107742,0.050522,-0.843504,-0.375038,0.046139,1.997254,1.113328,-0.673748,4.974865,-0.232117,0.634259
5.540000,1.624715,2.348776,1.465602,0.497124,0.104047,0.050950,-0.823286,-0.363918,0.039435,2.045898,1.110553,-0.666911,4.752365,-0.322855,0.732652
5.550000,1.629646,2.349798,1.466113,0.488994,0.100463,0.051311,-0.802593,-0.352830,0.032804,2.092270,1.106874,-0.659108,4.520372,-0.412827,0.827251
5.560000,1.634496,2.350785,1.466628,0.481074,0.096990,0.051606,-0.781449,-0.341783,0.026256,2.136262,1.102293,-0.650358,4.278952,-0.501929,0.917349
5.570000,1.639268,2.351738,1.467145,0.473367,0.093628,0.051836,-0.759876,-0.330787,0.019800,2.177803,1.096831,-0.640751,4.027585,-0.590368,1.003343
5.580000,1.643964,2.352658,1.467665,0.465878,0.090374,0.052002,-0.737901,-0.319850,0.013444,2.216780,1.090488,-0.630306,3.766029,-0.678202,1.085111
5.590000,1.648586,2.353546,1.468185,0.458610,0.087230,0.052105,-0.715550,-0.308980,0.007197,2.253089,1.083269,-0.619064,3.494040,-0.765491,1.162529
5.600000,1.653137,2.354403,1.468706,0.451568,0.084195,0.052147,-0.692849,-0.298187,0.001065,2.286625,1.075179,-0.607070,3.211374,-0.852296,1.235475
5.610000,1.657618,2.355230,1.469228,0.444754,0.081266,0.052127,-0.669827,-0.287480,-0.004942,2.317272,1.066220,-0.594348,2.917987,-0.938578,1.303282
5.620000,1.662033,2.356029,1.469749,0.438172,0.078445,0.052048,-0.646513,-0.276866,-0.010819,2.344939,1.056405,-0.580996,2.613413,-1.024507,1.366437
5.630000,1.666383,2.356800,1.470269,0.431825,0.075729,0.051911,-0.622938,-0.266354,-0.016560,2.369502,1.045731,-0.567035,2.297385,-1.110155,1.424883
5.640000,1.670670,2.357544,1.470787,0.425714,0.073117,0.051718,-0.599134,-0.255954,-0.022158,2.390847,1.034202,-0.552514,1.969634,-1.195594,1.478564
5.650000,1.674898,2.358262,1.471303,0.419843,0.070609,0.051469,-0.575132,-0.245673,-0.027609,2.408855,1.021820,-0.537480,1.629895,-1.280896,1.527423
5.660000,1.679068,2.358956,1.471816,0.414212,0.068203,0.051166,-0.550968,-0.235520,-0.032906,2.423399,1.008584,-0.521961,1.278047,-1.366113,1.570896
5.670000,1.683183,2.359627,1.472326,0.408824,0.065898,0.050811,-0.526676,-0.225504,-0.038047,2.434368,0.994497,-0.506055,0.913657,-1.451340,1.609496
5.680000,1.687245,2.360275,1.472832,0.403679,0.063693,0.050405,-0.502293,-0.215633,-0.043026,2.441629,0.979557,-0.489788,0.536439,-1.536650,1.643228
5.690000,1.691257,2.360901,1.473334,0.398778,0.061585,0.049951,-0.477857,-0.205916,-0.047841,2.445053,0.963763,-0.473207,0.146106,-1.622118,1.672099
5.700000,1.695221,2.361507,1.473831,0.394122,0.059574,0.049449,-0.453405,-0.196361,-0.052489,2.444506,0.947114,-0.456362,-0.257626,-1.707818,1.696113
5.710000,1.699140,2.362093,1.474323,0.389710,0.057657,0.048902,-0.428980,-0.186977,-0.056968,2.439847,0.929610,-0.439284,-0.674847,-1.793932,1.714857
5.720000,1.703017,2.362660,1.474809,0.385542,0.055834,0.048310,-0.404623,-0.177772,-0.061274,2.430954,0.911238,-0.422062,-1.106063,-1.880414,1.728808
5.730000,1.706852,2.363210,1.475289,0.381617,0.054101,0.047677,-0.380376,-0.168755,-0.065408,2.417678,0.892000,-0.404724,-1.551586,-1.967326,1.738023
5.740000,1.710650,2.363742,1.475762,0.377934,0.052458,0.047003,-0.356284,-0.159934,-0.069369,2.399874,0.871890,-0.387317,-2.011724,-2.054728,1.742558
5.750000,1.714412,2.364259,1.476229,0.374491,0.050902,0.046290,-0.332394,-0.151320,-0.073155,2.377394,0.850904,-0.369888,-2.486787,-2.142682,1.742470
5.760000,1.718140,2.364761,1.476688,0.371285,0.049431,0.045540,-0.308753,-0.142919,-0.076766,2.350070,0.829047,-0.352472,-2.976664,-2.231572,1.737535
5.770000,1.721838,2.365248,1.477139,0.368315,0.048043,0.044755,-0.285409,-0.134742,-0.080204,2.317789,0.806285,-0.335140,-3.482138,-2.321097,1.728126
5.780000,1.725507,2.365722,1.477583,0.365576,0.046735,0.043937,-0.262414,-0.126796,-0.083470,2.280374,0.782623,-0.317924,-4.003571,-2.411279,1.714335
5.790000,1.729150,2.366183,1.478018,0.363065,0.045506,0.043086,-0.239819,-0.119092,-0.086563,2.237664,0.758057,-0.300867,-4.541325,-2.502141,1.696253
5.800000,1.732769,2.366632,1.478444,0.360778,0.044353,0.042206,-0.217679,-0.111638,-0.089488,2.189492,0.732578,-0.284013,-5.095762,-2.593703,1.673974
5.810000,1.736367,2.367070,1.478862,0.358710,0.043272,0.041297,-0.196049,-0.104444,-0.092244,2.135652,0.706207,-0.267397,-5.666251,-2.686663,1.647474
5.820000,1.739944,2.367498,1.479270,0.356855,0.042263,0.040362,-0.174985,-0.097517,-0.094836,2.076064,0.678873,-0.251072,-6.254267,-2.780285,1.616973
5.830000,1.743504,2.367916,1.479669,0.355208,0.041321,0.039401,-0.154547,-0.090869,-0.097267,2.010507,0.650599,-0.235071,-6.860294,-2.874509,1.582577
5.840000,1.747049,2.368325,1.480058,0.353762,0.040444,0.038417,-0.134796,-0.084509,-0.099539,1.938797,0.621381,-0.219433,-7.484815,-2.969274,1.544391
5.850000,1.750580,2.368725,1.480437,0.352510,0.039630,0.037411,-0.115792,-0.078445,-0.101657,1.860747,0.591212,-0.204195,-8.128314,-3.064518,1.502520
5.860000,1.754100,2.369117,1.480806,0.351443,0.038875,0.036384,-0.097602,-0.072687,-0.103624,1.776166,0.560089,-0.189394,-8.791274,-3.160182,1.457070
5.870000,1.757610,2.369503,1.481165,0.350555,0.038175,0.035339,-0.080292,-0.067246,-0.105446,1.684855,0.528007,-0.175065,-9.474177,-3.256204,1.408146
5.880000,1.761112,2.369881,1.481513,0.349834,0.037529,0.034276,-0.063928,-0.062131,-0.107127,1.586614,0.494964,-0.161243,-10.177508,-3.352524,1.355855
5.890000,1.764607,2.370253,1.481851,0.349273,0.036931,0.033197,-0.048583,-0.057350,-0.108673,1.481236,0.460956,-0.147959,-10.901750,-3.449081,1.300301
5.900000,1.768098,2.370620,1.482177,0.348859,0.036380,0.032103,-0.034328,-0.052915,-0.110089,1.368508,0.425982,-0.135247,-11.647385,-3.545815,1.241590
5.910000,1.771585,2.370981,1.482493,0.348582,0.035872,0.030995,-0.021238,-0.048834,-0.111380,1.248215,0.390039,-0.123137,-12.414898,-3.642664,1.179829
5.920000,1.775070,2.371337,1.482797,0.348430,0.035402,0.029876,-0.009390,-0.045117,-0.112553,1.120135,0.353128,-0.111660,-13.204771,-3.739568,1.115121
5.930000,1.778554,2.371689,1.483090,0.348390,0.034968,0.028745,0.001138,-0.041774,-0.113615,0.984043,0.315248,-0.100845,-14.017487,-3.836466,1.047573
5.940000,1.782038,2.372037,1.483372,0.348448,0.034566,0.027604,0.010264,-0.038815,-0.114573,0.839708,0.276399,-0.090718,-14.853531,-3.933298,0.977291
5.950000,1.785523,2.372381,1.483642,0.348590,0.034191,0.026454,0.017904,-0.036250,-0.115432,0.686893,0.236583,-0.081307,-15.713385,-4.030003,0.904380
5.960000,1.789010,2.372721,1.483901,0.348801,0.033839,0.025295,0.023972,-0.034087,-0.116201,0.525359,0.195800,-0.072639,-16.597532,-4.126519,0.828945
5.970000,1.792499,2.373058,1.484148,0.349064,0.033508,0.024130,0.028381,-0.032337,-0.116887,0.354860,0.154053,-0.064737,-17.506457,-4.222787,0.751092
5.980000,1.795991,2.373391,1.484383,0.349363,0.033191,0.022958,0.031039,-0.031009,-0.117499,0.175146,0.111345,-0.057625,-18.440641,-4.318745,0.670927
5.990000,1.799486,2.373721,1.484607,0.349679,0.032886,0.021780,0.031852,-0.030113,-0.118043,-0.014039,0.067679,-0.051325,-19.400569,-4.414333,0.588555
6.000000,1.802985,2.374049,1.484819,0.349994,0.032588,0.020597,0.030726,-0.029659,-0.118528,-0.212953,0.023060,-0.045861,-20.386723,-4.509491,0.504082
