time,x,y,z,vx,vy,vz,ax,ay,az,jx,jy,jz,sx,sy,sz,roll,pitch,yaw,p,q,r
0.000000,-1.727564,-1.904019,-1.503396,-0.022816,-0.009903,0.007936,0.457061,0.322147,-0.006803,-7.908904,-7.886726,-0.015146,120.018657,205.090532,4.866278,0.032769,-0.046525,0.000000,-0.800484,0.803547,0.000000
0.010000,-1.727770,-1.904103,-1.503317,-0.018621,-0.007043,0.007868,0.383759,0.253164,-0.006721,-6.772368,-5.946138,0.030700,107.454143,183.300079,4.310329,0.025764,-0.039073,0.000000,-0.604077,0.688478,0.000000
0.020000,-1.727938,-1.904162,-1.503238,-0.015105,-0.004779,0.007803,0.321211,0.202525,-0.006207,-5.756579,-4.215376,0.071206,95.862334,163.114127,3.797951,0.020618,-0.032711,0.000000,-0.428474,0.585447,0.000000
0.030000,-1.728074,-1.904200,-1.503161,-0.012165,-0.002938,0.007745,0.268257,0.168210,-0.005313,-4.852015,-2.678727,0.106798,85.202446,144.466575,3.327336,0.017129,-0.027324,0.000000,-0.272314,0.493593,-0.000000
0.040000,-1.728183,-1.904221,-1.503083,-0.009712,-0.001366,0.007698,0.223831,0.148354,-0.004086,-4.049560,-1.321137,0.137886,75.433696,127.291326,2.896674,0.015111,-0.022803,0.000000,-0.134196,0.412045,0.000000
0.050000,-1.728270,-1.904228,-1.503007,-0.007663,0.000072,0.007665,0.186955,0.141238,-0.002569,-3.340507,-0.128213,0.164859,66.515301,111.522279,2.504156,0.014390,-0.019050,0.000000,-0.012726,0.339953,-0.000000
0.060000,-1.728338,-1.904220,-1.502930,-0.005950,0.001496,0.007648,0.156737,0.145286,-0.000801,-2.716555,0.913775,0.188090,58.406475,97.093337,2.147972,0.014806,-0.015975,0.000000,0.093457,0.276487,0.000000
0.070000,-1.728390,-1.904198,-1.502854,-0.004509,0.003010,0.007649,0.132366,0.159054,0.001182,-2.169814,1.817900,0.207933,51.066437,83.938400,1.826313,0.016213,-0.013494,0.000000,0.185660,0.220855,0.000000
0.080000,-1.728429,-1.904159,-1.502777,-0.003286,0.004705,0.007672,0.113108,0.181226,0.003347,-1.692800,2.596570,0.224725,44.454402,71.991369,1.537370,0.018477,-0.011533,0.000000,0.265128,0.172301,0.000000
0.090000,-1.728456,-1.904103,-1.502700,-0.002232,0.006658,0.007717,0.098301,0.210607,0.005667,-1.278436,3.261533,0.238784,38.529588,61.186146,1.279333,0.021477,-0.010026,0.000000,0.333043,0.130108,0.000000
0.100000,-1.728474,-1.904025,-1.502623,-0.001307,0.008937,0.007786,0.087353,0.246115,0.008115,-0.920053,3.823878,0.250409,33.251209,51.456631,1.050393,0.025103,-0.008912,0.000000,0.390517,0.093600,0.000000
0.110000,-1.728483,-1.903923,-1.502544,-0.000474,0.011598,0.007879,0.079735,0.286777,0.010668,-0.611393,4.294031,0.259883,28.578483,42.736726,0.848741,0.029256,-0.008137,0.000000,0.438597,0.062145,-0.000000
0.120000,-1.728483,-1.903791,-1.502465,0.000297,0.014687,0.007999,0.074979,0.331721,0.013306,-0.346601,4.681758,0.267469,24.470627,34.960331,0.672567,0.033847,-0.007653,0.000000,0.478263,0.035148,0.000000
0.130000,-1.728477,-1.903627,-1.502384,0.001034,0.018244,0.008146,0.072674,0.380168,0.016012,-0.120233,4.996163,0.273413,20.886856,28.061348,0.520061,0.038796,-0.007420,0.000000,0.510429,0.012059,0.000000
0.140000,-1.728463,-1.903425,-1.502302,0.001758,0.022300,0.008320,0.072463,0.431428,0.018770,0.072747,5.245689,0.277943,17.786386,21.973678,0.389415,0.044033,-0.007401,0.000000,0.535947,-0.007632,0.000000
0.150000,-1.728442,-1.903180,-1.502218,0.002489,0.026880,0.008521,0.074034,0.484891,0.021567,0.236970,5.438120,0.281268,15.128436,16.631221,0.278820,0.049495,-0.007563,0.000000,0.555601,-0.024395,0.000000
0.160000,-1.728413,-1.902886,-1.502131,0.003243,0.032003,0.008751,0.077121,0.540024,0.024392,0.376655,5.580577,0.283580,12.872220,11.967879,0.186464,0.055128,-0.007881,0.000000,0.570113,-0.038658,0.000000
0.170000,-1.728377,-1.902538,-1.502043,0.004036,0.037684,0.009009,0.081498,0.596358,0.027235,0.495617,5.679521,0.285052,10.976956,7.917553,0.110541,0.060883,-0.008331,0.000000,0.580139,-0.050807,0.000000
0.180000,-1.728332,-1.902130,-1.501951,0.004877,0.043933,0.009296,0.086975,0.653489,0.030090,0.597262,5.740751,0.285839,9.401859,4.414144,0.049239,0.066718,-0.008893,0.000000,0.586270,-0.061189,0.000000
0.190000,-1.728279,-1.901657,-1.501857,0.005778,0.050755,0.009611,0.093395,0.711064,0.032950,0.684586,5.769407,0.286080,8.106146,1.391553,0.000750,0.072597,-0.009552,0.000000,0.589034,-0.070108,0.000000
0.200000,-1.728216,-1.901113,-1.501759,0.006748,0.058155,0.009955,0.100628,0.768783,0.035811,0.760180,5.769965,0.285891,7.049034,-1.216319,-0.036735,0.078489,-0.010295,0.000000,0.588890,-0.077827,-0.000000
0.210000,-1.728144,-1.900492,-1.501657,0.007791,0.066127,0.010327,0.108638,0.826506,0.038667,0.832757,5.757572,0.285363,6.024779,-3.761724,-0.064725,0.084379,-0.011118,0.000000,0.587382,-0.085234,0.000000
0.220000,-1.728060,-1.899788,-1.501552,0.008920,0.074680,0.010728,0.117252,0.883855,0.041517,0.888630,5.708564,0.284608,5.177756,-5.989569,-0.085367,0.090228,-0.012003,0.000000,0.582116,-0.090934,0.000000
0.230000,-1.727965,-1.898997,-1.501443,0.010138,0.083803,0.011157,0.126385,0.940608,0.044359,0.936834,5.638735,0.283674,4.487382,-7.930914,-0.100508,0.096014,-0.012941,0.000000,0.574704,-0.095848,-0.000000
0.240000,-1.727857,-1.898111,-1.501329,0.011449,0.093489,0.011615,0.135968,0.996569,0.047190,0.978832,5.550797,0.282610,3.933072,-9.616817,-0.111994,0.101716,-0.013926,0.000000,0.565431,-0.100125,0.000000
0.250000,-1.727736,-1.897125,-1.501210,0.012859,0.103731,0.012101,0.145945,1.051571,0.050010,1.015881,5.447147,0.281441,3.494241,-11.078339,-0.121672,0.107317,-0.014952,0.000000,0.554550,-0.103893,0.000000
0.260000,-1.727600,-1.896034,-1.501087,0.014368,0.114515,0.012615,0.156309,1.105523,0.052821,1.052353,5.335026,0.280367,3.066447,-12.476661,-0.136205,0.112808,-0.016018,0.000000,0.542802,-0.107598,-0.000000
0.270000,-1.727448,-1.894833,-1.500958,0.015985,0.125835,0.013158,0.166979,1.158228,0.055617,1.081235,5.204017,0.278927,2.723233,-13.696788,-0.152032,0.118169,-0.017117,0.000000,0.529138,-0.110527,0.000000
0.280000,-1.727279,-1.893516,-1.500823,0.017709,0.137675,0.013728,0.177923,1.209565,0.058399,1.107065,5.061634,0.277318,2.454281,-14.753847,-0.170410,0.123387,-0.018244,0.000000,0.514329,-0.113141,-0.000000
0.290000,-1.727093,-1.892078,-1.500683,0.019544,0.150022,0.014325,0.189113,1.259428,0.061163,1.130534,4.909433,0.275506,2.249276,-15.662965,-0.192595,0.128452,-0.019396,0.000000,0.498538,-0.115511,-0.000000
0.300000,-1.726888,-1.890514,-1.500537,0.021492,0.162859,0.014951,0.200528,1.307726,0.063908,1.152229,4.748817,0.273449,2.097902,-16.439267,-0.219843,0.133355,-0.020572,0.000000,0.481914,-0.117697,0.000000
0.310000,-1.726663,-1.888819,-1.500384,0.023555,0.176170,0.015603,0.212171,1.354406,0.066634,1.174303,4.583348,0.271377,1.947743,-17.156184,-0.260709,0.138091,-0.021773,0.000000,0.464822,-0.119920,0.000000
0.320000,-1.726417,-1.886989,-1.500225,0.025735,0.189940,0.016283,0.224010,1.399371,0.069334,1.193191,4.408662,0.268538,1.835737,-17.763400,-0.308258,0.142649,-0.022993,0.000000,0.446820,-0.121815,0.000000
0.330000,-1.726148,-1.885019,-1.500058,0.028036,0.204152,0.016990,0.236032,1.442561,0.072003,1.211128,4.228419,0.265189,1.756723,-18.268903,-0.362853,0.147025,-0.024233,0.000000,0.428283,-0.123610,0.000000
0.340000,-1.725856,-1.882904,-1.499885,0.030457,0.218786,0.017723,0.248230,1.483924,0.074636,1.228418,4.043597,0.261257,1.705539,-18.680680,-0.424855,0.151213,-0.025492,0.000000,0.409309,-0.125336,0.000000
0.350000,-1.725538,-1.880642,-1.499704,0.033001,0.233824,0.018483,0.260599,1.523420,0.077226,1.245314,3.855091,0.256666,1.677024,-19.006718,-0.494629,0.155210,-0.026769,0.000000,0.389992,-0.127019,0.000000
0.360000,-1.725195,-1.878226,-1.499515,0.035669,0.249247,0.019268,0.273145,1.561027,0.079770,1.262845,3.664747,0.251615,1.645107,-19.280921,-0.579559,0.159014,-0.028064,0.000000,0.370518,-0.128764,-0.000000
0.370000,-1.724825,-1.875655,-1.499318,0.038464,0.265038,0.020078,0.285855,1.596707,0.082255,1.279199,3.470873,0.245363,1.628096,-19.482188,-0.672126,0.162620,-0.029377,0.000000,0.350708,-0.130384,-0.000000
0.380000,-1.724426,-1.872925,-1.499113,0.041387,0.281175,0.020912,0.298728,1.630439,0.084674,1.295448,3.275331,0.238149,1.623391,-19.615332,-0.771833,0.166027,-0.030707,0.000000,0.330752,-0.131989,-0.000000
0.390000,-1.723996,-1.870031,-1.498900,0.044439,0.297640,0.021771,0.311764,1.662210,0.087015,1.311699,3.078777,0.229904,1.628390,-19.685169,-0.878181,0.169235,-0.032054,0.000000,0.310713,-0.133590,0.000000
0.400000,-1.723536,-1.866971,-1.498678,0.047622,0.314413,0.022652,0.324963,1.692014,0.089268,1.328039,2.881822,0.220564,1.640493,-19.696512,-0.990675,0.172241,-0.033417,0.000000,0.290649,-0.135194,0.000000
0.410000,-1.723044,-1.863742,-1.498447,0.050939,0.331473,0.023556,0.338330,1.719852,0.091424,1.344935,2.685488,0.210261,1.646730,-19.665840,-1.113606,0.175048,-0.034799,0.000000,0.270663,-0.136849,-0.000000
0.420000,-1.722517,-1.860340,-1.498207,0.054389,0.348803,0.024480,0.351862,1.745725,0.093469,1.361447,2.489194,0.198491,1.656139,-19.584875,-1.241101,0.177655,-0.036197,0.000000,0.250685,-0.138458,0.000000
0.430000,-1.721955,-1.856765,-1.497957,0.057976,0.366381,0.025425,0.365559,1.769640,0.095390,1.378064,2.293947,0.185428,1.667386,-19.457002,-1.372076,0.180062,-0.037612,0.000000,0.230818,-0.140070,0.000000
0.440000,-1.721357,-1.853012,-1.497698,0.061701,0.384189,0.026388,0.379423,1.791609,0.097173,1.394796,2.100199,0.171041,1.679141,-19.285609,-1.505448,0.182272,-0.039044,0.000000,0.211101,-0.141685,-0.000000
0.450000,-1.720721,-1.849080,-1.497429,0.065565,0.402207,0.027368,0.393455,1.811650,0.098806,1.411644,1.908368,0.155314,1.690071,-19.074079,-1.640133,0.184285,-0.040493,0.000000,0.191575,-0.143303,0.000000
0.460000,-1.720045,-1.844967,-1.497151,0.069571,0.420416,0.028363,0.407659,1.829787,0.100276,1.428799,1.719064,0.138304,1.693588,-18.831452,-1.776719,0.186104,-0.041960,0.000000,0.172298,-0.144943,-0.000000
0.470000,-1.719329,-1.840671,-1.496862,0.073719,0.438796,0.029373,0.422031,1.846040,0.101568,1.445741,1.532105,0.119858,1.694261,-18.554768,-1.912245,0.187732,-0.043443,0.000000,0.153246,-0.146550,-0.000000
0.480000,-1.718570,-1.836191,-1.496563,0.078012,0.457330,0.030394,0.436573,1.860438,0.102669,1.462672,1.348073,0.100067,1.691403,-18.246724,-2.045424,0.189170,-0.044943,0.000000,0.134477,-0.148145,0.000000
0.490000,-1.717768,-1.831524,-1.496254,0.082451,0.475999,0.031425,0.451285,1.873012,0.103565,1.479555,1.167266,0.078962,1.684326,-17.910012,-2.174967,0.190422,-0.046460,0.000000,0.116018,-0.149723,0.000000
0.500000,-1.716921,-1.826670,-1.495935,0.087038,0.494785,0.032465,0.466164,1.883795,0.104244,1.496342,0.989959,0.056584,1.672343,-17.547326,-2.299586,0.191492,-0.047993,0.000000,0.097896,-0.151279,-0.000000
0.510000,-1.716027,-1.821628,-1.495605,0.091775,0.513669,0.033510,0.481212,1.892825,0.104692,1.513096,0.816531,0.032937,1.651908,-17.164741,-2.416637,0.192382,-0.049542,0.000000,0.080146,-0.152817,0.000000
0.520000,-1.715085,-1.816397,-1.495265,0.096663,0.532635,0.034558,0.496425,1.900139,0.104899,1.529488,0.646885,0.008215,1.625540,-16.761156,-2.526353,0.193096,-0.051106,0.000000,0.062761,-0.154306,0.000000
0.530000,-1.714093,-1.810975,-1.494914,0.101704,0.551666,0.035607,0.511801,1.905777,0.104853,1.545586,0.481370,-0.017562,1.592903,-16.338853,-2.627611,0.193638,-0.052686,0.000000,0.045774,-0.155751,0.000000
0.540000,-1.713050,-1.805363,-1.494552,0.106900,0.570746,0.036654,0.527336,1.909781,0.104544,1.561324,0.320163,-0.044305,1.553659,-15.900110,-2.719289,0.194013,-0.054281,0.000000,0.029205,-0.157145,0.000000
0.550000,-1.711955,-1.799560,-1.494181,0.112251,0.589857,0.037697,0.543026,1.912195,0.103964,1.576636,0.163415,-0.071912,1.507469,-15.447207,-2.800264,0.194224,-0.055889,0.000000,0.013070,-0.158482,-0.000000
0.560000,-1.710805,-1.793566,-1.493799,0.117761,0.608984,0.038732,0.558868,1.913066,0.103102,1.591519,0.011370,-0.100413,1.452243,-14.985256,-2.865807,0.194276,-0.057511,0.000000,-0.002609,-0.159759,0.000000
0.570000,-1.709599,-1.787381,-1.493406,0.123429,0.628113,0.039758,0.574854,1.912438,0.101953,1.605734,-0.136130,-0.129347,1.389612,-14.513358,-2.918843,0.194173,-0.059145,0.000000,-0.017838,-0.160956,-0.000000
0.580000,-1.708336,-1.781004,-1.493003,0.129258,0.647228,0.040770,0.590980,1.910359,0.100513,1.619286,-0.278870,-0.158746,1.319451,-14.033449,-2.958693,0.193920,-0.060791,0.000000,-0.032596,-0.162071,-0.000000
0.590000,-1.707013,-1.774436,-1.492591,0.135249,0.666316,0.041767,0.607238,1.906877,0.098777,1.632098,-0.416779,-0.188475,1.241637,-13.547461,-2.984674,0.193523,-0.062448,0.000000,-0.046873,-0.163097,0.000000
0.600000,-1.705630,-1.767678,-1.492168,0.141403,0.685361,0.042745,0.623619,1.902040,0.096743,1.644093,-0.549805,-0.218391,1.156047,-13.057329,-2.996106,0.192985,-0.064115,0.000000,-0.060661,-0.164028,0.000000
0.610000,-1.704185,-1.760729,-1.491736,0.147722,0.704352,0.043701,0.640117,1.895898,0.094407,1.655241,-0.677798,-0.248534,1.061337,-12.568008,-2.987562,0.192311,-0.065790,0.000000,-0.073945,-0.164859,0.000000
0.620000,-1.702675,-1.753591,-1.491294,0.154206,0.723275,0.044632,0.656721,1.888500,0.091773,1.665348,-0.801029,-0.278303,0.958753,-12.078039,-2.963689,0.191507,-0.067474,0.000000,-0.086739,-0.165575,0.000000
0.630000,-1.701100,-1.746264,-1.490843,0.160857,0.742118,0.045535,0.673421,1.879894,0.088842,1.674390,-0.919362,-0.307757,0.848323,-11.588986,-2.924386,0.190578,-0.069163,0.000000,-0.099031,-0.166173,0.000000
0.640000,-1.699457,-1.738749,-1.490384,0.167675,0.760869,0.046408,0.690205,1.870129,0.085619,1.682288,-1.032817,-0.336739,0.730072,-11.102412,-2.869554,0.189528,-0.070858,0.000000,-0.110818,-0.166646,-0.000000
0.650000,-1.697746,-1.731047,-1.489915,0.174661,0.779517,0.047247,0.707062,1.859254,0.082110,1.688965,-1.141424,-0.365096,0.604027,-10.619881,-2.799092,0.188363,-0.072556,0.000000,-0.122099,-0.166988,0.000000
0.660000,-1.695964,-1.723159,-1.489439,0.181816,0.798050,0.048049,0.723980,1.847318,0.078318,1.694379,-1.245098,-0.392857,0.469292,-10.146369,-2.708150,0.187088,-0.074257,0.000000,-0.132867,-0.167195,0.000000
0.670000,-1.694109,-1.715086,-1.488954,0.189141,0.816460,0.048812,0.740945,1.834368,0.074256,1.698367,-1.344221,-0.419420,0.326928,-9.679609,-2.601960,0.185708,-0.075959,0.000000,-0.143147,-0.167256,0.000000
0.680000,-1.692180,-1.706830,-1.488463,0.196635,0.834735,0.049534,0.757943,1.820449,0.069934,1.700893,-1.438716,-0.444847,0.177075,-9.220745,-2.481006,0.184227,-0.077660,0.000000,-0.152932,-0.167167,0.000000
0.690000,-1.690176,-1.698392,-1.487964,0.204300,0.852866,0.050210,0.774958,1.805608,0.065363,1.701884,-1.528667,-0.468992,0.019872,-8.770925,-2.345770,0.182651,-0.079360,0.000000,-0.162227,-0.166924,-0.000000
0.700000,-1.688094,-1.689773,-1.487459,0.212134,0.870844,0.050840,0.791975,1.789891,0.060558,1.701266,-1.614169,-0.491716,-0.144541,-8.331293,-2.196733,0.180984,-0.081055,0.000000,-0.171040,-0.166520,0.000000
0.710000,-1.685933,-1.680976,-1.486947,0.220139,0.888661,0.051421,0.808978,1.773341,0.055532,1.698998,-1.695185,-0.513035,-0.316742,-7.906658,-2.030537,0.179232,-0.082745,0.000000,-0.179366,-0.165953,0.000000
0.720000,-1.683690,-1.672001,-1.486430,0.228314,0.906308,0.051950,0.825949,1.756001,0.050303,1.694941,-1.772178,-0.532457,-0.495788,-7.494054,-1.851974,0.177398,-0.084427,0.000000,-0.187244,-0.165214,0.000000
0.730000,-1.681366,-1.662850,-1.485908,0.236658,0.923778,0.052426,0.842871,1.737911,0.044889,1.689060,-1.845109,-0.550036,-0.681451,-7.094178,-1.661999,0.175488,-0.086101,0.000000,-0.194670,-0.164301,0.000000
0.740000,-1.678957,-1.653526,-1.485382,0.245171,0.941064,0.052847,0.859724,1.719112,0.039309,1.681290,-1.914107,-0.565662,-0.873505,-6.707727,-1.461562,0.173506,-0.087764,0.000000,-0.201657,-0.163210,0.000000
0.750000,-1.676462,-1.644029,-1.484852,0.253852,0.958158,0.053212,0.876490,1.699642,0.033583,1.671569,-1.979310,-0.579236,-1.071723,-6.335397,-1.251617,0.171457,-0.089414,0.000000,-0.208216,-0.161937,0.000000
0.760000,-1.673879,-1.634363,-1.484318,0.262700,0.975054,0.053519,0.893149,1.679539,0.027731,1.659859,-2.040722,-0.590760,-1.276448,-5.981480,-1.030759,0.169343,-0.091050,0.000000,-0.214351,-0.160480,0.000000
0.770000,-1.671207,-1.624529,-1.483782,0.271715,0.991747,0.053766,0.909680,1.658839,0.021775,1.646047,-2.098830,-0.599932,-1.486814,-5.642638,-0.802585,0.167171,-0.092670,0.000000,-0.220105,-0.158833,0.000000
0.780000,-1.668444,-1.614529,-1.483243,0.280893,1.008229,0.053954,0.926063,1.637574,0.015740,1.630105,-2.153626,-0.606791,-1.702523,-5.319129,-0.568338,0.164943,-0.094271,0.000000,-0.225480,-0.156994,-0.000000
0.790000,-1.665589,-1.604365,-1.482703,0.290235,1.024497,0.054081,0.942275,1.615777,0.009647,1.611980,-2.205264,-0.611282,-1.923280,-5.011209,-0.329258,0.162662,-0.095852,0.000000,-0.230492,-0.154960,0.000000
0.800000,-1.662639,-1.594040,-1.482161,0.299738,1.040543,0.054147,0.958295,1.593478,0.003522,1.591623,-2.253903,-0.613364,-2.148788,-4.719135,-0.086587,0.160334,-0.097411,0.000000,-0.235158,-0.152729,-0.000000
0.810000,-1.659593,-1.583555,-1.481620,0.309400,1.056365,0.054151,0.974100,1.570710,-0.002612,1.569009,-2.299576,-0.613033,-2.379240,-4.446302,0.159100,0.157961,-0.098946,0.000000,-0.239484,-0.150301,-0.000000
0.820000,-1.656450,-1.572913,-1.481079,0.319219,1.071956,0.054095,0.989667,1.547496,-0.008730,1.544047,-2.342742,-0.610208,-2.613790,-4.189445,0.405816,0.155545,-0.100455,0.000000,-0.243516,-0.147668,0.000000
0.830000,-1.653209,-1.562117,-1.480538,0.329193,1.087313,0.053977,1.004973,1.523863,-0.014808,1.516720,-2.383418,-0.604917,-2.852080,-3.948436,0.652237,0.153091,-0.101935,0.000000,-0.247259,-0.144831,0.000000
0.840000,-1.649866,-1.551168,-1.479999,0.339318,1.102432,0.053799,1.019994,1.499835,-0.020820,1.486994,-2.421763,-0.597169,-3.093755,-3.723148,0.897042,0.150601,-0.103385,0.000000,-0.250731,-0.141789,0.000000
0.850000,-1.646422,-1.540069,-1.479462,0.349592,1.117309,0.053561,1.034705,1.475435,-0.026743,1.454835,-2.457933,-0.586986,-3.338456,-3.513454,1.138908,0.148077,-0.104802,0.000000,-0.253950,-0.138539,0.000000
0.860000,-1.642874,-1.528822,-1.478928,0.360011,1.131939,0.053264,1.049083,1.450684,-0.032552,1.420235,-2.491989,-0.574368,-3.586322,-3.321626,1.375586,0.145523,-0.106186,0.000000,-0.256926,-0.135081,0.000000
0.870000,-1.639221,-1.517431,-1.478397,0.370572,1.146321,0.052910,1.063101,1.425601,-0.038223,1.383123,-2.524309,-0.559451,-3.836441,-3.144844,1.606794,0.142940,-0.107532,0.000000,-0.259700,-0.131411,-0.000000
0.880000,-1.635462,-1.505897,-1.477870,0.381272,1.160450,0.052500,1.076737,1.400204,-0.043733,1.343500,-2.554934,-0.542255,-4.088396,-2.982686,1.831322,0.140330,-0.108840,0.000000,-0.262280,-0.127527,-0.000000
0.890000,-1.631595,-1.494223,-1.477348,0.392106,1.174324,0.052036,1.089963,1.374508,-0.049061,1.301351,-2.584010,-0.522851,-4.341770,-2.834731,2.047962,0.137695,-0.110107,0.000000,-0.264683,-0.123430,0.000000
0.900000,-1.627619,-1.482411,-1.476830,0.403070,1.187940,0.051520,1.102755,1.348528,-0.054183,1.256662,-2.611675,-0.501326,-4.596146,-2.700559,2.255505,0.135036,-0.111332,0.000000,-0.266928,-0.119118,0.000000
0.910000,-1.623533,-1.470465,-1.476317,0.414159,1.201294,0.050953,1.115088,1.322279,-0.059079,1.209448,-2.638005,-0.477688,-4.851666,-2.581276,2.450524,0.132357,-0.112511,0.000000,-0.269025,-0.114593,0.000000
0.920000,-1.619336,-1.458386,-1.475811,0.425370,1.214384,0.050339,1.126936,1.295772,-0.063731,1.159653,-2.663275,-0.452254,-5.107285,-2.474746,2.634300,0.129656,-0.113643,0.000000,-0.271007,-0.109848,-0.000000
0.930000,-1.615026,-1.446178,-1.475311,0.436696,1.227208,0.049679,1.138273,1.269017,-0.068119,1.107303,-2.687540,-0.425042,-5.362517,-2.380360,2.805895,0.126937,-0.114726,0.000000,-0.272883,-0.104884,-0.000000
0.940000,-1.610601,-1.433843,-1.474817,0.448133,1.239764,0.048977,1.149073,1.242024,-0.072226,1.052406,-2.710920,-0.396180,-5.616876,-2.297511,2.964371,0.124199,-0.115757,0.000000,-0.274670,-0.099701,0.000000
0.950000,-1.606062,-1.421384,-1.474331,0.459676,1.252048,0.048236,1.159312,1.214801,-0.076037,0.994970,-2.733527,-0.365802,-5.869878,-2.225590,3.108791,0.121444,-0.116734,0.000000,-0.276381,-0.094299,0.000000
0.960000,-1.601408,-1.408803,-1.473853,0.471318,1.264059,0.047458,1.168964,1.187356,-0.079536,0.935039,-2.755441,-0.333930,-6.121658,-2.164635,3.235098,0.118672,-0.117656,0.000000,-0.278028,-0.088681,0.000000
0.970000,-1.596636,-1.396103,-1.473382,0.483053,1.275795,0.046646,1.178005,1.159694,-0.082712,0.872573,-2.776823,-0.301012,-6.371033,-2.113312,3.345857,0.115883,-0.118520,0.000000,-0.279634,-0.082838,0.000000
0.980000,-1.591746,-1.383288,-1.472920,0.494876,1.287252,0.045805,1.186408,1.131821,-0.085553,0.807628,-2.797737,-0.267067,-6.617439,-2.070935,3.440511,0.113079,-0.119323,0.000000,-0.281207,-0.076775,0.000000
0.990000,-1.586738,-1.370359,-1.472466,0.506779,1.298430,0.044936,1.194149,1.103741,-0.088050,0.740236,-2.818269,-0.232258,-6.860316,-2.036816,3.518506,0.110259,-0.120065,0.000000,-0.282759,-0.070492,0.000000
1.000000,-1.581610,-1.357320,-1.472021,0.518756,1.309326,0.044045,1.201204,1.075457,-0.090196,0.670435,-2.838499,-0.196754,-7.099101,-2.010268,3.579286,0.107424,-0.120741,0.000000,-0.284303,-0.063990,0.000000
1.010000,-1.576363,-1.344174,-1.471585,0.530801,1.319939,0.043133,1.207550,1.046972,-0.091982,0.598294,-2.858499,-0.160588,-7.333844,-1.990555,3.618684,0.104573,-0.121351,0.000000,-0.285847,-0.057273,0.000000
1.020000,-1.570994,-1.330922,-1.471159,0.542905,1.330265,0.042206,1.213162,1.018287,-0.093406,0.523803,-2.878332,-0.124279,-7.563297,-1.977044,3.640198,0.101707,-0.121892,0.000000,-0.287404,-0.050333,0.000000
1.030000,-1.565504,-1.317569,-1.470741,0.555061,1.340304,0.041267,1.218019,0.989405,-0.094467,0.447048,-2.898059,-0.087844,-7.786822,-1.969054,3.643716,0.098825,-0.122362,0.000000,-0.288981,-0.043177,-0.000000
1.040000,-1.559893,-1.304117,-1.470333,0.567263,1.350053,0.040318,1.222096,0.960326,-0.095164,0.368089,-2.917730,-0.051465,-8.003783,-1.965904,3.629125,0.095927,-0.122759,0.000000,-0.290586,-0.035807,0.000000
1.050000,-1.554159,-1.290569,-1.469935,0.579501,1.359510,0.039364,1.225373,0.931051,-0.095497,0.286996,-2.937391,-0.015322,-8.213542,-1.966911,3.596310,0.093013,-0.123081,0.000000,-0.292227,-0.028226,0.000000
1.060000,-1.548303,-1.276928,-1.469546,0.591767,1.368673,0.038409,1.227829,0.901578,-0.095470,0.203861,-2.957101,0.020548,-8.415893,-1.970860,3.541429,0.090082,-0.123326,0.000000,-0.293909,-0.020439,0.000000
1.070000,-1.542324,-1.263197,-1.469167,0.604054,1.377541,0.037456,1.229444,0.871909,-0.095088,0.118726,-2.976841,0.055613,-8.609715,-1.977670,3.468556,0.087135,-0.123491,0.000000,-0.295637,-0.012443,-0.000000
1.080000,-1.536222,-1.249378,-1.468797,0.616353,1.386110,0.036509,1.230198,0.842041,-0.094360,0.031698,-2.996662,0.089860,-8.794321,-1.986726,3.378034,0.084170,-0.123575,0.000000,-0.297415,-0.004246,0.000000
1.090000,-1.529997,-1.235476,-1.468437,0.628655,1.394381,0.035570,1.230072,0.811975,-0.093294,-0.057128,-3.016581,0.123116,-8.969020,-1.997410,3.270208,0.081186,-0.123575,0.000000,-0.299246,0.004147,0.000000
1.100000,-1.523649,-1.221492,-1.468086,0.640952,1.402349,0.034644,1.229049,0.781709,-0.091902,-0.147648,-3.036613,0.155208,-9.133123,-2.009107,3.145420,0.078184,-0.123491,0.000000,-0.301134,0.012730,0.000000
1.110000,-1.517178,-1.207430,-1.467744,0.653233,1.410014,0.033733,1.227114,0.751242,-0.090193,-0.239752,-3.056797,0.186107,-9.285945,-2.020386,3.000519,0.075163,-0.123319,0.000000,-0.303081,0.021495,0.000000
1.120000,-1.510584,-1.193292,-1.467411,0.665491,1.417374,0.032841,1.224249,0.720573,-0.088185,-0.333326,-3.077057,0.215322,-9.426791,-2.031547,2.839772,0.072123,-0.123059,0.000000,-0.305083,0.030439,-0.000000
1.130000,-1.503868,-1.179083,-1.467087,0.677715,1.424425,0.031970,1.220443,0.689700,-0.085892,-0.428246,-3.097426,0.242852,-9.554972,-2.042073,2.663951,0.069062,-0.122709,0.000000,-0.307142,0.039551,-0.000000
1.140000,-1.497030,-1.164805,-1.466771,0.689897,1.431167,0.031124,1.215680,0.658624,-0.083334,-0.524381,-3.117894,0.268553,-9.669797,-2.051449,2.473830,0.065980,-0.122266,0.000000,-0.309257,0.048823,0.000000
1.150000,-1.490070,-1.150461,-1.466464,0.702026,1.437597,0.030304,1.209951,0.627342,-0.080528,-0.621595,-3.138449,0.292284,-9.770575,-2.059158,2.270178,0.062876,-0.121730,0.000000,-0.311426,0.058244,0.000000
1.160000,-1.482989,-1.136054,-1.466165,0.714092,1.443713,0.029514,1.203244,0.595854,-0.077494,-0.719886,-3.159146,0.314029,-9.853015,-2.062785,2.050858,0.059751,-0.121098,0.000000,-0.313652,0.067815,-0.000000
1.170000,-1.475789,-1.121588,-1.465874,0.726087,1.449513,0.028755,1.195551,0.564159,-0.074255,-0.818766,-3.179781,0.333392,-9.920469,-2.063946,1.819909,0.056603,-0.120370,0.000000,-0.315916,0.077496,0.000000
1.180000,-1.468468,-1.107065,-1.465590,0.738000,1.454996,0.028030,1.186867,0.532258,-0.070834,-0.918245,-3.200415,0.350392,-9.972690,-2.062358,1.578459,0.053432,-0.119545,0.000000,-0.318221,0.087286,0.000000
1.190000,-1.461029,-1.092489,-1.465313,0.749821,1.460158,0.027339,1.177185,0.500151,-0.067255,-1.018168,-3.221018,0.364930,-10.009427,-2.057737,1.327637,0.050239,-0.118622,0.000000,-0.320562,0.097174,-0.000000
1.200000,-1.453472,-1.077863,-1.465043,0.761541,1.464998,0.026685,1.166502,0.467838,-0.063544,-1.118381,-3.241559,0.376918,-10.030433,-2.049800,1.068570,0.047021,-0.117599,0.000000,-0.322932,0.107145,0.000000
1.210000,-1.445798,-1.063190,-1.464779,0.773148,1.469514,0.026069,1.154819,0.435321,-0.059725,-1.218471,-3.261914,0.386357,-10.041854,-2.040502,0.800400,0.043780,-0.116477,0.000000,-0.325317,0.117157,0.000000
1.220000,-1.438009,-1.048474,-1.464522,0.784633,1.473704,0.025491,1.142133,0.402600,-0.055826,-1.318876,-3.282255,0.392995,-10.036262,-2.027047,0.526486,0.040515,-0.115254,0.000000,-0.327731,0.127258,0.000000
1.230000,-1.430106,-1.033717,-1.464269,0.795987,1.477565,0.024952,1.128442,0.369677,-0.051874,-1.419136,-3.302439,0.396872,-10.012625,-2.008877,0.248200,0.037225,-0.113929,0.000000,-0.330156,0.137401,0.000000
1.240000,-1.422090,-1.018923,-1.464022,0.807199,1.481096,0.024453,1.113751,0.336552,-0.047898,-1.519065,-3.322415,0.397949,-9.969910,-1.985434,-0.033088,0.033912,-0.112504,0.000000,-0.332582,0.147566,0.000000
1.250000,-1.413963,-1.004096,-1.463780,0.818259,1.484296,0.023994,1.098063,0.303229,-0.043925,-1.618467,-3.342128,0.396204,-9.907085,-1.956161,-0.316006,0.030574,-0.110976,0.000000,-0.335000,0.157732,0.000000
1.260000,-1.405725,-0.989239,-1.463542,0.829157,1.487160,0.023575,1.081382,0.269709,-0.039983,-1.717356,-3.361665,0.391651,-9.817552,-1.916764,-0.599747,0.027211,-0.109347,0.000000,-0.337414,0.167899,-0.000000
1.270000,-1.397380,-0.974354,-1.463308,0.839883,1.489689,0.023194,1.063719,0.235997,-0.036101,-1.814995,-3.380609,0.384239,-9.706526,-1.870878,-0.882306,0.023825,-0.107617,0.000000,-0.339777,0.177992,0.000000
1.280000,-1.388928,-0.959446,-1.463078,0.850428,1.491880,0.022852,1.045086,0.202099,-0.032307,-1.911414,-3.399061,0.374013,-9.573657,-1.818405,-1.162242,0.020416,-0.105787,0.000000,-0.342095,0.188009,-0.000000
1.290000,-1.380372,-0.944518,-1.462851,0.860782,1.493730,0.022548,1.025496,0.168018,-0.028630,-2.006394,-3.416955,0.361007,-9.418595,-1.759246,-1.438113,0.016984,-0.103857,0.000000,-0.344355,0.197926,0.000000
1.300000,-1.371713,-0.929573,-1.462627,0.870935,1.495240,0.022279,1.004964,0.133762,-0.025096,-2.099711,-3.434223,0.345269,-9.240989,-1.693299,-1.708478,0.013529,-0.101828,0.000000,-0.346546,0.207716,-0.000000
1.310000,-1.362954,-0.914614,-1.462406,0.880878,1.496405,0.022045,0.983502,0.099334,-0.021734,-2.191674,-3.450950,0.326825,-9.026924,-1.616617,-1.970980,0.010053,-0.099702,0.000000,-0.348670,0.217406,0.000000
1.320000,-1.354097,-0.899646,-1.462186,0.890602,1.497226,0.021844,0.961138,0.064745,-0.018568,-2.280783,-3.466705,0.305836,-8.791276,-1.533420,-2.225206,0.006556,-0.097480,0.000000,-0.350678,0.226839,-0.000000
1.330000,-1.345143,-0.884671,-1.461969,0.900098,1.497700,0.021673,0.937894,0.030003,-0.015625,-2.367432,-3.481598,0.282353,-8.535353,-1.444079,-2.469830,0.003040,-0.095166,0.000000,-0.352576,0.236050,-0.000000
1.340000,-1.336095,-0.869693,-1.461753,0.909357,1.497825,0.021531,0.913798,-0.004884,-0.012929,-2.451427,-3.495568,0.256476,-8.260468,-1.348964,-2.703522,-0.000495,-0.092760,0.000000,-0.354352,0.245012,0.000000
1.350000,-1.326957,-0.854715,-1.461538,0.918371,1.497601,0.021414,0.888875,-0.039905,-0.010504,-2.532583,-3.508559,0.228323,-7.967931,-1.248447,-2.924955,-0.004047,-0.090266,0.000000,-0.355995,0.253702,0.000000
1.360000,-1.317729,-0.839742,-1.461324,0.927132,1.497027,0.021320,0.863159,-0.075050,-0.008371,-2.610477,-3.520378,0.197925,-7.665473,-1.146471,-3.130332,-0.007614,-0.087687,0.000000,-0.357481,0.262071,-0.000000
1.370000,-1.308415,-0.824776,-1.461111,0.935632,1.496100,0.021245,0.836676,-0.110309,-0.006552,-2.685553,-3.531312,0.165655,-7.347198,-1.039398,-3.321095,-0.011196,-0.085026,0.000000,-0.358833,0.270156,0.000000
1.380000,-1.299017,-0.809821,-1.460899,0.943863,1.494820,0.021188,0.809459,-0.145672,-0.005064,-2.757370,-3.541149,0.131555,-7.013629,-0.927161,-3.496218,-0.014790,-0.082285,0.000000,-0.360025,0.277906,0.000000
1.390000,-1.289538,-0.794881,-1.460688,0.951819,1.493186,0.021143,0.781540,-0.181128,-0.003926,-2.825776,-3.549838,0.095786,-6.665289,-0.809695,-3.654673,-0.018396,-0.079468,0.000000,-0.361048,0.285300,-0.000000
1.400000,-1.279982,-0.779958,-1.460476,0.959492,1.491197,0.021108,0.752955,-0.216665,-0.003153,-2.890628,-3.557325,0.058520,-6.302704,-0.686934,-3.795436,-0.022011,-0.076579,0.000000,-0.361893,0.292317,-0.000000
1.410000,-1.270350,-0.765058,-1.460266,0.966876,1.488853,0.021079,0.723739,-0.252271,-0.002762,-2.951826,-3.563624,0.019789,-5.925356,-0.557157,-3.913683,-0.025633,-0.073622,0.000000,-0.362557,0.298941,0.000000
1.420000,-1.260645,-0.750183,-1.460055,0.973964,1.486152,0.021051,0.693931,-0.287933,-0.002761,-3.009138,-3.568525,-0.019859,-5.534937,-0.422155,-4.012649,-0.029261,-0.070600,0.000000,-0.363017,0.305141,0.000000
1.430000,-1.250871,-0.735336,-1.459844,0.980752,1.483094,0.021022,0.663570,-0.323637,-0.003162,-3.062483,-3.572050,-0.060397,-5.132098,-0.282063,-4.091773,-0.032893,-0.067518,0.000000,-0.363273,0.310905,0.000000
1.440000,-1.241031,-0.720522,-1.459634,0.987234,1.479679,0.020987,0.632695,-0.359370,-0.003972,-3.111741,-3.574150,-0.101626,-4.717492,-0.137019,-4.150493,-0.036526,-0.064380,0.000000,-0.363317,0.316214,0.000000
1.450000,-1.231128,-0.705744,-1.459425,0.993405,1.475906,0.020941,0.601349,-0.395115,-0.005196,-3.156796,-3.574775,-0.143337,-4.291769,0.012841,-4.188250,-0.040159,-0.061191,0.000000,-0.363144,0.321053,0.000000
1.460000,-1.221164,-0.691005,-1.459216,0.999260,1.471777,0.020881,0.569572,-0.430861,-0.006841,-3.197745,-3.573928,-0.185492,-3.850426,0.168671,-4.200116,-0.043788,-0.057955,0.000000,-0.362753,0.325428,0.000000
1.470000,-1.211144,-0.676309,-1.459007,1.004795,1.467289,0.020803,0.537409,-0.466589,-0.008906,-3.234004,-3.571444,-0.227463,-3.399902,0.328887,-4.190429,-0.047413,-0.054678,0.000000,-0.362129,0.329275,-0.000000
1.480000,-1.201069,-0.661660,-1.458800,1.010007,1.462445,0.020702,0.504907,-0.502284,-0.011390,-3.265717,-3.567337,-0.269229,-2.941476,0.493194,-4.159162,-0.051030,-0.051364,0.000000,-0.361274,0.332606,0.000000
1.490000,-1.190944,-0.647062,-1.458593,1.014892,1.457244,0.020574,0.472110,-0.537930,-0.014289,-3.292811,-3.561568,-0.310574,-2.476433,0.661299,-4.106289,-0.054638,-0.048018,0.000000,-0.360185,0.335413,0.000000
1.500000,-1.180773,-0.632517,-1.458388,1.019448,1.451687,0.020415,0.439066,-0.573510,-0.017599,-3.315228,-3.554099,-0.351282,-2.006055,0.832907,-4.031782,-0.058233,-0.044647,0.000000,-0.358862,0.337687,0.000000
1.510000,-1.170557,-0.618029,-1.458185,1.023673,1.445774,0.020221,0.405822,-0.609006,-0.021314,-3.332874,-3.544878,-0.391314,-1.532749,1.007189,-3.931150,-0.061814,-0.041255,0.000000,-0.357300,0.339420,0.000000
1.520000,-1.160300,-0.603602,-1.457984,1.027564,1.439507,0.019987,0.372424,-0.644401,-0.025422,-3.345823,-3.533922,-0.430034,-1.056535,1.184452,-3.809377,-0.065378,-0.037848,0.000000,-0.355508,0.340618,0.000000
1.530000,-1.150006,-0.589240,-1.457785,1.031121,1.432886,0.019711,0.338921,-0.679678,-0.029910,-3.353999,-3.521179,-0.467433,-0.578558,1.364467,-3.666982,-0.068923,-0.034430,0.000000,-0.353484,0.341275,0.000000
1.540000,-1.139679,-0.574946,-1.457590,1.034342,1.425914,0.019388,0.305360,-0.714819,-0.034765,-3.357392,-3.506624,-0.503307,-0.099962,1.547003,-3.504487,-0.072447,-0.031008,0.000000,-0.351231,0.341392,-0.000000
1.550000,-1.129321,-0.560723,-1.457398,1.037228,1.418590,0.019014,0.271789,-0.749805,-0.039970,-3.356000,-3.490232,-0.537457,0.378107,1.731833,-3.322411,-0.075947,-0.027586,0.000000,-0.348751,0.340971,0.000000
1.560000,-1.118935,-0.546575,-1.457210,1.039778,1.410918,0.018587,0.238257,-0.784617,-0.045510,-3.349767,-3.471970,-0.569851,0.852771,1.918456,-3.117244,-0.079421,-0.024170,0.000000,-0.346047,0.340011,0.000000
1.570000,-1.108526,-0.532506,-1.457026,1.041993,1.402899,0.018103,0.204810,-0.819238,-0.051360,-3.338876,-3.451844,-0.599922,1.324830,2.106948,-2.894028,-0.082867,-0.020766,0.000000,-0.343128,0.338533,-0.000000
1.580000,-1.098097,-0.518518,-1.456848,1.043875,1.394534,0.017559,0.171495,-0.853648,-0.057500,-3.323282,-3.429825,-0.627675,1.793354,2.297113,-2.653778,-0.086283,-0.017378,0.000000,-0.339997,0.336538,0.000000
1.590000,-1.087650,-0.504616,-1.456675,1.045424,1.385827,0.016952,0.138360,-0.887828,-0.063906,-3.303024,-3.405897,-0.652944,2.257410,2.488756,-2.397506,-0.089667,-0.014012,0.000000,-0.336661,0.334034,0.000000
1.600000,-1.077189,-0.490803,-1.456509,1.046643,1.376778,0.016280,0.105450,-0.921759,-0.070550,-3.278152,-3.380046,-0.675575,2.716065,2.681680,-2.126225,-0.093016,-0.010672,0.000000,-0.333125,0.331033,-0.000000
1.610000,-1.066718,-0.477082,-1.456350,1.047534,1.367392,0.015541,0.072813,-0.955422,-0.077409,-3.248634,-3.352258,-0.695543,3.166131,2.875641,-1.837886,-0.096329,-0.007364,0.000000,-0.329395,0.327537,0.000000
1.620000,-1.056240,-0.463456,-1.456199,1.048100,1.357671,0.014732,0.040492,-0.988798,-0.084451,-3.214752,-3.322528,-0.712427,3.609207,3.070499,-1.536940,-0.099603,-0.004092,0.000000,-0.325481,0.323582,0.000000
1.630000,-1.045757,-0.449930,-1.456056,1.048345,1.347617,0.013851,0.008532,-1.021867,-0.091647,-3.176476,-3.290846,-0.726245,4.044639,3.266063,-1.224774,-0.102838,-0.000862,0.000000,-0.321389,0.319171,-0.000000
1.640000,-1.035274,-0.436505,-1.455922,1.048272,1.337235,0.012898,-0.023023,-1.054608,-0.098966,-3.133886,-3.257205,-0.736890,4.471770,3.462143,-0.902777,-0.106030,0.002323,0.000000,-0.317127,0.314318,0.000000
1.650000,-1.024793,-0.423186,-1.455798,1.047886,1.326526,0.011872,-0.054131,-1.087004,-0.106374,-3.087070,-3.221602,-0.744272,4.889945,3.658551,-0.572336,-0.109180,0.005459,0.000000,-0.312702,0.309040,-0.000000
1.660000,-1.014317,-0.409976,-1.455685,1.047191,1.315496,0.010771,-0.084750,-1.119034,-0.113841,-3.036029,-3.184041,-0.748380,5.296212,3.855282,-0.233152,-0.112284,0.008540,0.000000,-0.308121,0.303344,0.000000
1.670000,-1.003850,-0.396877,-1.455583,1.046193,1.304147,0.009595,-0.114838,-1.150678,-0.121331,-2.981077,-3.144505,-0.748992,5.692492,4.051937,0.111493,-0.115341,0.011563,0.000000,-0.303393,0.297268,0.000000
1.680000,-0.993394,-0.383894,-1.455493,1.044896,1.292484,0.008344,-0.144358,-1.181918,-0.128809,-2.922213,-3.103003,-0.746137,6.078409,4.248304,0.460003,-0.118351,0.014524,0.000000,-0.298525,0.290820,-0.000000
1.690000,-0.982953,-0.371028,-1.455416,1.043308,1.280510,0.007019,-0.173270,-1.212732,-0.136242,-2.859544,-3.059540,-0.739785,6.453589,4.444170,0.810784,-0.121312,0.017419,0.000000,-0.293524,0.284015,-0.000000
1.700000,-0.972529,-0.358285,-1.455353,1.041433,1.268230,0.005619,-0.201537,-1.243102,-0.143593,-2.793179,-3.014122,-0.729919,6.817656,4.639324,1.162240,-0.124221,0.020245,0.000000,-0.288397,0.276871,0.000000
1.710000,-0.962125,-0.345665,-1.455304,1.039279,1.255649,0.004147,-0.229121,-1.273008,-0.150828,-2.723157,-2.966771,-0.716547,7.168402,4.833917,1.512877,-0.127079,0.022998,0.000000,-0.283153,0.269398,0.000000
1.720000,-0.951744,-0.333173,-1.455270,1.036853,1.242772,0.002603,-0.255988,-1.302431,-0.157912,-2.649768,-2.917464,-0.699675,7.507509,5.027328,1.860987,-0.129884,0.025676,0.000000,-0.277796,0.261631,-0.000000
1.730000,-0.941389,-0.320810,-1.455252,1.034162,1.229603,0.000990,-0.282105,-1.331351,-0.164810,-2.573046,-2.866230,-0.679341,7.834829,5.219298,2.204964,-0.132635,0.028274,0.000000,-0.272333,0.253577,-0.000000
1.740000,-0.931062,-0.308581,-1.455251,1.031213,1.216147,-0.000692,-0.307438,-1.359749,-0.171488,-2.493111,-2.813084,-0.655595,8.150211,5.409569,2.543202,-0.135330,0.030791,0.000000,-0.266769,0.245253,-0.000000
1.750000,-0.920766,-0.296488,-1.455266,1.028016,1.202409,-0.002439,-0.331957,-1.387606,-0.177911,-2.410082,-2.758045,-0.628501,8.453505,5.597884,2.874094,-0.137970,0.033224,0.000000,-0.261112,0.236674,-0.000000
1.760000,-0.910503,-0.284534,-1.455300,1.024577,1.188396,-0.004249,-0.355630,-1.414904,-0.184046,-2.324041,-2.701151,-0.598083,8.743543,5.784420,3.194530,-0.140552,0.035569,0.000000,-0.255367,0.227852,-0.000000
1.770000,-0.900275,-0.272721,-1.455351,1.020906,1.174113,-0.006119,-0.378428,-1.441623,-0.189862,-2.235207,-2.642384,-0.564578,9.021316,5.968432,3.504591,-0.143077,0.037825,0.000000,-0.249536,0.218812,0.000000
1.780000,-0.890085,-0.261053,-1.455422,1.017011,1.159566,-0.008045,-0.400325,-1.467745,-0.195328,-2.143656,-2.581791,-0.528031,9.286799,6.149609,3.802851,-0.145543,0.039990,0.000000,-0.243623,0.209561,0.000000
1.790000,-0.879935,-0.249531,-1.455512,1.012903,1.144760,-0.010025,-0.421293,-1.493253,-0.200413,-2.049512,-2.519402,-0.488565,9.539966,6.327641,4.087890,-0.147949,0.042061,0.000000,-0.237634,0.200115,0.000000
1.800000,-0.869828,-0.238158,-1.455623,1.008589,1.129703,-0.012052,-0.441307,-1.518128,-0.205090,-1.952898,-2.455250,-0.446322,9.780792,6.502216,4.358283,-0.150295,0.044036,0.000000,-0.231572,0.190486,-0.000000
1.810000,-0.859764,-0.226938,-1.455754,1.004080,1.114400,-0.014125,-0.460343,-1.542352,-0.209329,-1.853934,-2.389385,-0.401337,10.009169,6.673380,4.609685,-0.152580,0.045913,0.000000,-0.225444,0.180686,0.000000
1.820000,-0.849747,-0.215871,-1.455905,0.999385,1.098858,-0.016237,-0.478378,-1.565910,-0.213108,-1.752752,-2.321812,-0.354055,10.225162,6.840423,4.843954,-0.154804,0.047691,0.000000,-0.219244,0.170725,-0.000000
1.830000,-0.839777,-0.204961,-1.456079,0.994516,1.083084,-0.018385,-0.495391,-1.588783,-0.216403,-1.649472,-2.252591,-0.304519,10.428757,7.002990,5.060023,-0.156965,0.049368,0.000000,-0.212979,0.160616,0.000000
1.840000,-0.829857,-0.194210,-1.456273,0.989481,1.067085,-0.020564,-0.511361,-1.610956,-0.219192,-1.544218,-2.181769,-0.252918,10.619937,7.160726,5.256829,-0.159063,0.050943,0.000000,-0.206651,0.150368,0.000000
1.850000,-0.819988,-0.183620,-1.456490,0.984292,1.050867,-0.022768,-0.526269,-1.632413,-0.221455,-1.437115,-2.109394,-0.199450,10.798686,7.313279,5.433306,-0.161098,0.052414,0.000000,-0.200261,0.139991,-0.000000
1.860000,-0.810172,-0.173194,-1.456729,0.978959,1.034439,-0.024991,-0.540098,-1.653139,-0.223174,-1.328313,-2.035526,-0.144165,10.965685,7.460415,5.584375,-0.163068,0.053779,0.000000,-0.193813,0.129497,-0.000000
1.870000,-0.800409,-0.162932,-1.456990,0.973494,1.017807,-0.027229,-0.552830,-1.673119,-0.224334,-1.217874,-1.960211,-0.087657,11.120137,7.601644,5.713476,-0.164974,0.055038,0.000000,-0.187303,0.118887,0.000000
1.880000,-0.790702,-0.152838,-1.457273,0.967906,1.000979,-0.029476,-0.564450,-1.692339,-0.224923,-1.105953,-1.883514,-0.029970,11.261940,7.736595,5.820035,-0.166814,0.056189,0.000000,-0.180734,0.108173,0.000000
1.890000,-0.781052,-0.142913,-1.457579,0.962208,0.983963,-0.031726,-0.574945,-1.710785,-0.224930,-0.992678,-1.805501,0.028667,11.390993,7.864899,5.903478,-0.168588,0.057232,0.000000,-0.174106,0.097362,0.000000
1.900000,-0.771458,-0.133159,-1.457908,0.956411,0.966766,-0.033973,-0.584300,-1.728445,-0.224347,-0.878176,-1.726240,0.088020,11.507195,7.986186,5.963232,-0.170296,0.058164,0.000000,-0.167421,0.086461,-0.000000
1.910000,-0.761924,-0.123579,-1.458259,0.950526,0.949397,-0.036211,-0.592505,-1.745306,-0.223166,-0.762619,-1.645792,0.148035,11.611516,8.099833,5.994064,-0.171937,0.058986,0.000000,-0.160681,0.075484,0.000000
1.920000,-0.752448,-0.114172,-1.458632,0.944565,0.931863,-0.038434,-0.599549,-1.761357,-0.221386,-0.646037,-1.564257,0.208029,11.702652,8.205756,6.000629,-0.173509,0.059696,0.000000,-0.153881,0.064425,-0.000000
1.930000,-0.743033,-0.104942,-1.459027,0.938539,0.914172,-0.040636,-0.605423,-1.776587,-0.219006,-0.528611,-1.481704,0.267967,11.780372,8.303616,5.982925,-0.175014,0.060294,0.000000,-0.147023,0.053297,0.000000
1.940000,-0.733678,-0.095889,-1.459445,0.932460,0.896334,-0.042812,-0.610119,-1.790988,-0.216027,-0.410475,-1.398213,0.327606,11.844443,8.393077,5.940948,-0.176450,0.060779,0.000000,-0.140109,0.042107,0.000000
1.950000,-0.724383,-0.087016,-1.459883,0.926341,0.878355,-0.044955,-0.613630,-1.804549,-0.212455,-0.291768,-1.313871,0.386705,11.894633,8.473799,5.874695,-0.177816,0.061149,0.000000,-0.133137,0.030862,0.000000
1.960000,-0.715151,-0.078322,-1.460344,0.920192,0.860245,-0.047059,-0.615955,-1.817261,-0.208294,-0.172849,-1.228646,0.445208,11.936234,8.542370,5.779389,-0.179112,0.061406,0.000000,-0.126100,0.019592,0.000000
1.970000,-0.705980,-0.069811,-1.460824,0.914026,0.842013,-0.049119,-0.617086,-1.829120,-0.203555,-0.053340,-1.142917,0.502427,11.962813,8.601902,5.660386,-0.180338,0.061547,0.000000,-0.119018,0.008251,0.000000
1.980000,-0.696870,-0.061483,-1.461326,0.907854,0.823666,-0.051129,-0.617021,-1.840118,-0.198250,0.066355,-1.056638,0.558339,11.973461,8.652435,5.518266,-0.181492,0.061573,0.000000,-0.111882,-0.003126,0.000000
1.990000,-0.687823,-0.053338,-1.461847,0.901689,0.805213,-0.053082,-0.615759,-1.850251,-0.192393,0.186073,-0.969898,0.612717,11.967268,8.694007,5.353612,-0.182575,0.061484,0.000000,-0.104692,-0.014530,-0.000000
2.000000,-0.678836,-0.045379,-1.462387,0.895543,0.786664,-0.054975,-0.613300,-1.859514,-0.186001,0.305641,-0.882787,0.665338,11.943327,8.726657,5.167004,-0.183586,0.061278,0.000000,-0.097448,-0.025950,0.000000
2.010000,-0.669912,-0.037605,-1.462946,0.889427,0.768026,-0.056801,-0.609641,-1.867907,-0.179091,0.425454,-0.795556,0.716159,11.886154,8.754494,4.954657,-0.184524,0.060955,0.000000,-0.090169,-0.037428,0.000000
2.020000,-0.661048,-0.030018,-1.463523,0.883354,0.749309,-0.058555,-0.604793,-1.875425,-0.171685,0.543955,-0.707910,0.764559,11.811200,8.772987,4.722055,-0.185389,0.060516,0.000000,-0.082808,-0.048821,0.000000
2.030000,-0.652244,-0.022619,-1.464117,0.877335,0.730520,-0.060233,-0.598765,-1.882065,-0.163808,0.661622,-0.620128,0.810536,11.719339,8.781676,4.470313,-0.186180,0.059962,0.000000,-0.075389,-0.060178,0.000000
2.040000,-0.643501,-0.015408,-1.464727,0.871382,0.711670,-0.061829,-0.591564,-1.887827,-0.155483,0.778289,-0.532311,0.853905,11.611447,8.780101,4.200547,-0.186897,0.059292,0.000000,-0.067913,-0.071489,0.000000
2.050000,-0.634816,-0.008386,-1.465353,0.865508,0.692767,-0.063341,-0.583203,-1.892712,-0.146739,0.893800,-0.444562,0.894491,11.488401,8.767803,3.913873,-0.187538,0.058507,0.000000,-0.060383,-0.082741,0.000000
2.060000,-0.626190,-0.001553,-1.465994,0.859722,0.673819,-0.064763,-0.573698,-1.896717,-0.137602,1.007495,-0.356755,0.932254,11.364056,8.738339,3.608260,-0.188104,0.057608,0.000000,-0.052780,-0.093872,0.000000
2.070000,-0.617622,0.005090,-1.466648,0.854038,0.654835,-0.066092,-0.563057,-1.899848,-0.128104,1.120452,-0.269565,0.966749,11.224718,8.697963,3.288356,-0.188594,0.056596,0.000000,-0.045158,-0.104993,0.000000
2.080000,-0.609109,0.011544,-1.467315,0.848465,0.635825,-0.067324,-0.551294,-1.902109,-0.118278,1.231937,-0.182831,0.997979,11.069673,8.646949,2.955664,-0.189007,0.055471,0.000000,-0.037498,-0.116034,-0.000000
2.090000,-0.600652,0.017807,-1.467994,0.843015,0.616796,-0.068456,-0.538424,-1.903506,-0.108156,1.341791,-0.096660,1.025824,10.898209,8.585568,2.611685,-0.189344,0.054233,0.000000,-0.029803,-0.126980,0.000000
2.100000,-0.592249,0.023879,-1.468684,0.837700,0.597758,-0.069486,-0.524464,-1.904045,-0.097773,1.449844,-0.011154,1.050180,10.709612,8.514094,2.257921,-0.189603,0.052885,0.000000,-0.022078,-0.137815,-0.000000
2.110000,-0.583897,0.029762,-1.469384,0.832530,0.578718,-0.070411,-0.509434,-1.903730,-0.087164,1.555857,0.073777,1.071025,10.504831,8.428045,1.894116,-0.189785,0.051427,0.000000,-0.014311,-0.148516,-0.000000
2.120000,-0.575597,0.035454,-1.470092,0.827515,0.559686,-0.071229,-0.493354,-1.902572,-0.076365,1.659804,0.157589,1.088119,10.281287,8.333030,1.523744,-0.189889,0.049861,0.000000,-0.006546,-0.159081,0.000000
2.130000,-0.567347,0.040956,-1.470808,0.822666,0.540669,-0.071938,-0.476246,-1.900581,-0.065414,1.761418,0.240410,1.101483,10.038061,8.229901,1.148521,-0.189916,0.048188,0.000000,0.001230,-0.169481,0.000000
2.140000,-0.559143,0.046267,-1.471530,0.817993,0.521677,-0.072537,-0.458134,-1.897768,-0.054348,1.860497,0.322163,1.111079,9.774236,8.119514,0.770164,-0.189865,0.046410,0.000000,0.009012,-0.179694,0.000000
2.150000,-0.550986,0.051389,-1.472258,0.813507,0.502717,-0.073025,-0.439045,-1.894142,-0.043205,1.956831,0.402779,1.116882,9.488895,8.002722,0.390389,-0.189735,0.044529,0.000000,0.016796,-0.189698,0.000000
2.160000,-0.542873,0.056322,-1.472991,0.809215,0.483797,-0.073401,-0.418992,-1.889719,-0.032023,2.051642,0.481895,1.118880,9.144704,7.888074,0.011112,-0.189529,0.042546,0.000000,0.024547,-0.199610,0.000000
2.170000,-0.534801,0.061065,-1.473726,0.805129,0.464925,-0.073665,-0.398024,-1.884508,-0.020840,2.141287,0.560179,1.117102,8.781622,7.767789,-0.366174,-0.189245,0.040465,0.000000,0.032333,-0.209063,0.000000
2.180000,-0.526769,0.065620,-1.474463,0.801258,0.446109,-0.073818,-0.376179,-1.878520,-0.009693,2.227223,0.637231,1.111568,8.403191,7.641777,-0.739777,-0.188882,0.038290,0.000000,0.040114,-0.218198,-0.000000
2.190000,-0.518775,0.069988,-1.475202,0.797609,0.427357,-0.073859,-0.353493,-1.871768,0.001379,2.309312,0.712995,1.102324,8.012951,7.509951,-1.108006,-0.188442,0.036023,0.000000,0.047882,-0.226996,0.000000
2.200000,-0.510816,0.074168,-1.475940,0.794191,0.408676,-0.073790,-0.330006,-1.864264,0.012341,2.387454,0.787411,1.089432,7.614447,7.372223,-1.469168,-0.187925,0.033669,0.000000,0.055629,-0.235439,-0.000000
2.210000,-0.502891,0.078162,-1.476677,0.791012,0.390074,-0.073613,-0.305787,-1.856021,0.023155,2.458777,0.860741,1.072881,7.282131,7.220384,-1.819314,-0.187329,0.031235,0.000000,0.063383,-0.243235,0.000000
2.220000,-0.494995,0.081970,-1.477412,0.788078,0.371558,-0.073328,-0.280841,-1.847055,0.033787,2.529898,0.932164,1.052979,6.939950,7.063462,-2.159286,-0.186657,0.028719,0.000000,0.071049,-0.251038,0.000000
2.230000,-0.487128,0.085593,-1.478144,0.785397,0.353135,-0.072938,-0.255201,-1.837383,0.044203,2.597526,1.001996,1.029734,6.582762,6.902364,-2.487667,-0.185909,0.026126,0.000000,0.078660,-0.258514,-0.000000
2.240000,-0.479287,0.089033,-1.478871,0.782976,0.334813,-0.072445,-0.228903,-1.827020,0.054371,2.661486,1.070200,1.003269,6.205427,6.737995,-2.803043,-0.185084,0.023459,0.000000,0.086207,-0.265638,-0.000000
2.250000,-0.471468,0.092290,-1.479592,0.780821,0.316597,-0.071851,-0.201984,-1.815984,0.064258,2.721551,1.136748,0.973721,5.802803,6.571263,-3.103998,-0.184185,0.020722,0.000000,0.093681,-0.272379,0.000000
2.260000,-0.463669,0.095365,-1.480307,0.778938,0.298495,-0.071161,-0.174452,-1.804288,0.073834,2.780563,1.201863,0.941077,5.290892,6.396953,-3.384966,-0.183211,0.017916,0.000000,0.101101,-0.279019,0.000000
2.270000,-0.455888,0.098260,-1.481015,0.777333,0.280514,-0.070376,-0.146391,-1.791953,0.083071,2.830803,1.264961,0.905892,4.753065,6.222843,-3.649189,-0.182163,0.015049,0.000000,0.108396,-0.284769,-0.000000
2.280000,-0.448122,0.100976,-1.481715,0.776011,0.262658,-0.069500,-0.117854,-1.778995,0.091943,2.875553,1.326326,0.868152,4.193837,6.050587,-3.895761,-0.181043,0.012127,0.000000,0.115591,-0.289954,0.000000
2.290000,-0.440367,0.103514,-1.482405,0.774977,0.244936,-0.068538,-0.088899,-1.765432,0.100426,2.914623,1.385985,0.828039,3.617723,5.881843,-4.123773,-0.179852,0.009156,0.000000,0.122679,-0.294546,-0.000000
2.300000,-0.432621,0.105875,-1.483085,0.774235,0.227352,-0.067493,-0.059581,-1.751281,0.108497,2.947866,1.443980,0.785742,3.029236,5.718265,-4.332320,-0.178590,0.006141,0.000000,0.129657,-0.298523,-0.000000
2.310000,-0.424881,0.108061,-1.483754,0.773787,0.209912,-0.066370,-0.029958,-1.736563,0.116132,2.975451,1.499898,0.741264,2.426075,5.573508,-4.515544,-0.177259,0.003090,0.000000,0.136478,-0.301897,0.000000
2.320000,-0.417144,0.110074,-1.484412,0.773636,0.192622,-0.065172,-0.000092,-1.721287,0.123316,2.996684,1.554938,0.695279,1.820406,5.435761,-4.678092,-0.175861,0.000010,0.000000,0.143245,-0.304589,0.000000
2.330000,-0.409408,0.111914,-1.485058,0.773785,0.175488,-0.063905,0.029955,-1.705468,0.130033,3.011869,1.608637,0.647772,1.217578,5.305211,-4.819664,-0.174395,-0.003095,0.000000,0.149908,-0.306626,-0.000000
2.340000,-0.401668,0.113584,-1.485690,0.774236,0.158515,-0.062573,0.060125,-1.689119,0.136267,3.021063,1.661067,0.598956,0.622940,5.182045,-4.939959,-0.172863,-0.006215,0.000000,0.156464,-0.308008,0.000000
2.350000,-0.393922,0.115085,-1.486309,0.774988,0.141708,-0.061181,0.090357,-1.672251,0.142008,3.024373,1.712303,0.549045,0.041842,5.066449,-5.038673,-0.171266,-0.009346,0.000000,0.162913,-0.308743,-0.000000
2.360000,-0.386167,0.116419,-1.486913,0.776044,0.125072,-0.059734,0.120560,-1.654879,0.147243,3.018912,1.762195,0.498080,-0.443316,4.964338,-5.111072,-0.169605,-0.012476,0.000000,0.169234,-0.308531,0.000000
2.370000,-0.378400,0.117587,-1.487503,0.777400,0.108612,-0.058238,0.150719,-1.637010,0.151968,3.012116,1.811358,0.446698,-0.913671,4.869470,-5.161831,-0.167881,-0.015604,0.000000,0.175475,-0.308129,0.000000
2.380000,-0.370618,0.118591,-1.488078,0.779058,0.092333,-0.056697,0.180787,-1.618655,0.156176,3.000674,1.859607,0.394915,-1.373309,4.781330,-5.191194,-0.166096,-0.018725,0.000000,0.181611,-0.307198,0.000000
2.390000,-0.362818,0.119434,-1.488637,0.781016,0.076240,-0.055116,0.210718,-1.599821,0.159865,2.984672,1.907005,0.342944,-1.826315,4.699404,-5.199400,-0.164250,-0.021832,0.000000,0.187644,-0.305745,0.000000
2.400000,-0.354997,0.120117,-1.489180,0.783272,0.060338,-0.053501,0.240466,-1.580517,0.163035,2.964156,1.953614,0.290997,-2.276774,4.623178,-5.186693,-0.162343,-0.024921,0.000000,0.193571,-0.303776,0.000000
2.410000,-0.347151,0.120642,-1.489707,0.785823,0.044631,-0.051857,0.270010,-1.560749,0.165684,2.941381,1.999692,0.239117,-2.785584,4.546929,-5.149216,-0.160378,-0.027990,0.000000,0.199417,-0.301521,-0.000000
2.420000,-0.339279,0.121010,-1.490217,0.788670,0.029125,-0.050189,0.299276,-1.540526,0.167819,2.910985,2.044803,0.187896,-3.293062,4.475988,-5.091810,-0.158355,-0.031028,0.000000,0.205121,-0.298433,0.000000
2.430000,-0.331377,0.121225,-1.490711,0.791808,0.013822,-0.048502,0.328213,-1.519855,0.169444,2.875533,2.089230,0.137345,-3.796338,4.410479,-5.015219,-0.156276,-0.034032,0.000000,0.210712,-0.294777,-0.000000
2.440000,-0.323442,0.121287,-1.491187,0.795233,-0.001271,-0.046802,0.356770,-1.498744,0.170569,2.835082,2.133031,0.087653,-4.292541,4.350524,-4.920186,-0.154142,-0.036995,0.000000,0.216189,-0.290560,0.000000
2.450000,-0.315471,0.121200,-1.491647,0.798942,-0.016151,-0.045093,0.384898,-1.477197,0.171201,2.789716,2.176260,0.039000,-4.778800,4.296246,-4.807455,-0.151953,-0.039911,0.000000,0.221554,-0.285795,-0.000000
2.460000,-0.307462,0.120965,-1.492089,0.802930,-0.030814,-0.043380,0.412544,-1.455219,0.171351,2.739080,2.219050,-0.008557,-5.240410,4.245875,-4.674797,-0.149711,-0.042775,0.000000,0.226818,-0.280447,-0.000000
2.470000,-0.299412,0.120585,-1.492514,0.807191,-0.045254,-0.041667,0.439665,-1.432817,0.171034,2.684427,2.261282,-0.054576,-5.687784,4.201660,-4.526291,-0.147417,-0.045582,0.000000,0.231961,-0.274650,0.000000
2.480000,-0.291318,0.120061,-1.492923,0.811721,-0.059469,-0.039960,0.466217,-1.409995,0.170265,2.625377,2.303105,-0.099034,-6.119500,4.163955,-4.363045,-0.145072,-0.048326,0.000000,0.236998,-0.268369,0.000000
2.490000,-0.283177,0.119396,-1.493314,0.816513,-0.073453,-0.038263,0.492158,-1.386756,0.169059,2.562094,2.344584,-0.141791,-6.534136,4.133117,-4.186166,-0.142677,-0.051005,0.000000,0.241933,-0.261626,0.000000
2.500000,-0.274986,0.118592,-1.493688,0.821562,-0.087202,-0.036581,0.517446,-1.363104,0.167435,2.494756,2.385791,-0.182716,-6.930271,4.109499,-3.996762,-0.140234,-0.053611,0.000000,0.246772,-0.254444,0.000000
2.510000,-0.266745,0.117653,-1.494045,0.826860,-0.100713,-0.034916,0.542038,-1.339044,0.165411,2.423356,2.426494,-0.221736,-7.301468,4.101185,-3.794736,-0.137742,-0.056142,0.000000,0.251491,-0.246827,0.000000
2.520000,-0.258448,0.116579,-1.494386,0.832400,-0.113982,-0.033274,0.565901,-1.314574,0.163008,2.348571,2.467493,-0.258630,-7.651934,4.099855,-3.582546,-0.135204,-0.058594,0.000000,0.256170,-0.238849,0.000000
2.530000,-0.250096,0.115374,-1.494711,0.838176,-0.127003,-0.031657,0.588998,-1.289695,0.160246,2.270389,2.508512,-0.293357,-7.980863,4.104918,-3.361448,-0.132619,-0.060962,0.000000,0.260781,-0.230515,0.000000
2.540000,-0.241684,0.114040,-1.495020,0.844178,-0.139774,-0.030070,0.611298,-1.264404,0.157148,2.189029,2.549611,-0.325834,-8.287446,4.115783,-3.132696,-0.129989,-0.063244,0.000000,0.265333,-0.221853,0.000000
2.550000,-0.233211,0.112579,-1.495312,0.850399,-0.152290,-0.028515,0.632769,-1.238702,0.153737,2.104717,2.590845,-0.355990,-8.570877,4.131859,-2.897547,-0.127313,-0.065436,0.000000,0.269831,-0.212889,0.000000
2.560000,-0.224675,0.110995,-1.495590,0.856830,-0.164547,-0.026996,0.653378,-1.212589,0.150036,2.017162,2.632026,-0.383751,-8.816977,4.158538,-2.657680,-0.124592,-0.067535,0.000000,0.274258,-0.203600,0.000000
2.570000,-0.216074,0.109289,-1.495852,0.863464,-0.176540,-0.025515,0.673105,-1.186060,0.146070,1.927858,2.673760,-0.409111,-9.039946,4.188512,-2.413872,-0.121828,-0.069539,0.000000,0.278679,-0.194143,-0.000000
2.580000,-0.207406,0.107465,-1.496100,0.870289,-0.188267,-0.024075,0.691928,-1.159113,0.141862,1.836437,2.715803,-0.432019,-9.240614,4.220457,-2.167327,-0.119019,-0.071446,0.000000,0.283071,-0.184483,0.000000
2.590000,-0.198668,0.105525,-1.496334,0.877299,-0.199721,-0.022679,0.709827,-1.131743,0.137438,1.743117,2.758171,-0.452453,-9.419811,4.253049,-1.919247,-0.116166,-0.073254,0.000000,0.287440,-0.174648,0.000000
2.600000,-0.189859,0.103471,-1.496554,0.884483,-0.210900,-0.021327,0.726784,-1.103948,0.132821,1.648110,2.800862,-0.470403,-9.578367,4.284962,-1.670835,-0.113270,-0.074962,0.000000,0.291786,-0.164661,0.000000
2.610000,-0.180978,0.101308,-1.496761,0.891831,-0.221799,-0.020023,0.742786,-1.075721,0.128039,1.551820,2.844243,-0.485796,-9.722250,4.305281,-1.425233,-0.110330,-0.076569,0.000000,0.296152,-0.154569,0.000000
2.620000,-0.172022,0.099036,-1.496955,0.899335,-0.232413,-0.018767,0.757816,-1.047063,0.123114,1.453960,2.887389,-0.498827,-9.846522,4.323449,-1.181467,-0.107347,-0.078072,0.000000,0.300448,-0.144343,0.000000
2.630000,-0.162990,0.096660,-1.497136,0.906985,-0.242739,-0.017561,0.771862,-1.017972,0.118070,1.354954,2.930705,-0.509434,-9.951382,4.339316,-0.940503,-0.104321,-0.079472,0.000000,0.304718,-0.134029,0.000000
2.640000,-0.153882,0.094183,-1.497306,0.914769,-0.252771,-0.016406,0.784912,-0.988448,0.112933,1.254996,2.974167,-0.517650,-10.037031,4.352733,-0.703307,-0.101253,-0.080767,0.000000,0.308964,-0.123648,0.000000
2.650000,-0.144695,0.091606,-1.497465,0.922679,-0.262506,-0.015303,0.796959,-0.958489,0.107725,1.154277,3.017751,-0.523516,-10.103669,4.363550,-0.470844,-0.098142,-0.081957,0.000000,0.313188,-0.113222,0.000000
2.660000,-0.135428,0.088933,-1.497612,0.930705,-0.271940,-0.014252,0.807996,-0.928093,0.102471,1.053024,3.061388,-0.526982,-10.152473,4.372647,-0.246697,-0.094989,-0.083043,0.000000,0.317385,-0.102776,0.000000
2.670000,-0.126080,0.086168,-1.497750,0.938836,-0.281067,-0.013253,0.818018,-0.897261,0.097193,0.951333,3.105147,-0.528354,-10.182546,4.378719,-0.028894,-0.091795,-0.084022,0.000000,0.321570,-0.092317,0.000000
2.680000,-0.116651,0.083313,-1.497878,0.947062,-0.289883,-0.012308,0.827022,-0.865990,0.091911,0.849435,3.148951,-0.527583,-10.193970,4.381491,0.181920,-0.088558,-0.084897,0.000000,0.325736,-0.081870,0.000000
2.690000,-0.107139,0.080372,-1.497996,0.955373,-0.298385,-0.011415,0.835007,-0.834282,0.086648,0.747516,3.192765,-0.524741,-10.186825,4.380688,0.385100,-0.085280,-0.085666,0.000000,0.329886,-0.071454,0.000000
2.700000,-0.097543,0.077347,-1.498106,0.963759,-0.306567,-0.010575,0.841973,-0.802135,0.081423,0.645760,3.236552,-0.519909,-10.161192,4.376034,0.580001,-0.081960,-0.086331,0.000000,0.334018,-0.061088,0.000000
2.710000,-0.087863,0.074241,-1.498208,0.972209,-0.314426,-0.009786,0.847920,-0.769553,0.076257,0.544051,3.280113,-0.513069,-10.109506,4.371270,0.763400,-0.078600,-0.086892,0.000000,0.338116,-0.050758,0.000000
2.720000,-0.078099,0.071059,-1.498302,0.980714,-0.321957,-0.009049,0.852856,-0.736533,0.071168,0.443287,3.323782,-0.504556,-10.040429,4.361612,0.937545,-0.075198,-0.087350,0.000000,0.342220,-0.040554,-0.000000
2.730000,-0.068249,0.067803,-1.498389,0.989263,-0.329155,-0.008363,0.856788,-0.703077,0.066172,0.343297,3.367327,-0.494350,-9.954977,4.346293,1.102108,-0.071755,-0.087706,0.000000,0.346308,-0.030456,0.000000
2.740000,-0.058313,0.064477,-1.498469,0.997846,-0.336017,-0.007726,0.859725,-0.669187,0.061286,0.244238,3.410686,-0.482547,-9.854168,4.324547,1.256757,-0.068272,-0.087961,0.000000,0.350378,-0.020481,0.000000
2.750000,-0.048292,0.061084,-1.498544,1.006454,-0.342538,-0.007137,0.861677,-0.634864,0.056526,0.146261,3.453794,-0.469249,-9.739018,4.295605,1.401165,-0.064748,-0.088117,0.000000,0.354426,-0.010640,0.000000
2.760000,-0.038184,0.057628,-1.498612,1.015077,-0.348713,-0.006595,0.862655,-0.600110,0.051907,0.049587,3.496748,-0.454463,-9.612665,4.254248,1.532566,-0.061183,-0.088175,0.000000,0.358464,-0.000955,0.000000
2.770000,-0.027990,0.054111,-1.498676,1.023704,-0.354539,-0.006098,0.862673,-0.564931,0.047441,-0.045856,3.539050,-0.438524,-9.473746,4.204707,1.653364,-0.057579,-0.088137,0.000000,0.362447,0.008585,0.000000
2.780000,-0.017710,0.050538,-1.498734,1.032327,-0.360010,-0.005645,0.861743,-0.529331,0.043140,-0.139849,3.580814,-0.421431,-9.323016,4.146758,1.763528,-0.053935,-0.088003,0.000000,0.366386,0.017960,0.000000
2.790000,-0.007344,0.046912,-1.498789,1.040936,-0.365124,-0.005235,0.859881,-0.493317,0.039016,-0.232279,3.621956,-0.403289,-9.161232,4.080181,1.863027,-0.050251,-0.087777,0.000000,0.370277,0.027160,0.000000
2.800000,0.003109,0.043237,-1.498839,1.049521,-0.369875,-0.004864,0.857103,-0.456894,0.035078,-0.323039,3.662389,-0.384206,-8.989153,4.004752,1.951831,-0.046529,-0.087460,0.000000,0.374111,0.036177,0.000000
2.810000,0.013647,0.039516,-1.498886,1.058075,-0.374260,-0.004532,0.853426,-0.420071,0.031335,-0.412015,3.702095,-0.364215,-8.807928,3.918395,2.028052,-0.042769,-0.087054,0.000000,0.377889,0.045000,0.000000
2.820000,0.024270,0.035753,-1.498930,1.066587,-0.378275,-0.004237,0.848869,-0.382856,0.027796,-0.499151,3.740809,-0.343597,-8.617873,3.822969,2.093741,-0.038972,-0.086560,0.000000,0.381586,0.053630,-0.000000
2.830000,0.034978,0.031951,-1.498971,1.075049,-0.381916,-0.003976,0.843450,-0.345258,0.024465,-0.584345,3.778524,-0.322375,-8.419696,3.718481,2.149096,-0.035138,-0.085981,0.000000,0.385201,0.062055,0.000000
2.840000,0.045771,0.028116,-1.499010,1.083453,-0.385179,-0.003747,0.837189,-0.307289,0.021350,-0.667520,3.815148,-0.300649,-8.214106,3.604934,2.194312,-0.031268,-0.085319,0.000000,0.388727,0.070272,0.000000
2.850000,0.056647,0.024249,-1.499046,1.091790,-0.388061,-0.003548,0.830106,-0.268959,0.018454,-0.748605,3.850592,-0.278522,-8.001812,3.482334,2.229585,-0.027363,-0.084576,0.000000,0.392154,0.078274,0.000000
2.860000,0.067606,0.020356,-1.499081,1.100053,-0.390557,-0.003377,0.822224,-0.230280,0.015781,-0.827506,3.884824,-0.256041,-7.784276,3.349187,2.253886,-0.023425,-0.083754,0.000000,0.395480,0.086054,-0.000000
2.870000,0.078648,0.016439,-1.499114,1.108232,-0.392665,-0.003232,0.813564,-0.191267,0.013333,-0.904239,3.917613,-0.233420,-7.561361,3.207182,2.268787,-0.019454,-0.082855,0.000000,0.398682,0.093616,0.000000
2.880000,0.089771,0.012504,-1.499145,1.116321,-0.394382,-0.003110,0.804147,-0.151933,0.011113,-0.978718,3.948939,-0.210696,-7.333683,3.056505,2.274634,-0.015452,-0.081882,0.000000,0.401757,0.100953,0.000000
2.890000,0.100974,0.008553,-1.499176,1.124313,-0.395703,-0.003009,0.793997,-0.112293,0.009120,-1.050899,3.978715,-0.187957,-7.101858,2.897346,2.271772,-0.011420,-0.080836,0.000000,0.404695,0.108062,0.000000
2.900000,0.112257,0.004591,-1.499206,1.132199,-0.396626,-0.002926,0.783137,-0.072364,0.007353,-1.120743,4.006858,-0.165288,-6.866502,2.729892,2.260548,-0.007359,-0.079721,0.000000,0.407489,0.114941,0.000000
2.910000,0.123617,0.000622,-1.499235,1.139973,-0.397149,-0.002861,0.771590,-0.032162,0.005814,-1.188184,4.033325,-0.142748,-6.629124,2.553358,2.240691,-0.003270,-0.078538,0.000000,0.410132,0.121584,0.000000
2.920000,0.135056,-0.003351,-1.499263,1.147629,-0.397269,-0.002809,0.759381,0.008296,0.004498,-1.253278,4.057943,-0.120472,-6.389340,2.369027,2.213241,0.000844,-0.077290,0.000000,0.412606,0.127997,0.000000
2.930000,0.146570,-0.007322,-1.499291,1.155159,-0.396983,-0.002770,0.746533,0.048991,0.003403,-1.315964,4.080680,-0.098507,-6.147655,2.177205,2.178618,0.004981,-0.075979,0.000000,0.414906,0.134177,0.000000
2.940000,0.158158,-0.011289,-1.499318,1.162557,-0.396288,-0.002741,0.733070,0.089903,0.002526,-1.376226,4.101463,-0.076922,-5.904577,1.978201,2.137243,0.009141,-0.074607,0.000000,0.417024,0.140122,0.000000
2.950000,0.169820,-0.015247,-1.499346,1.169818,-0.395184,-0.002719,0.719016,0.131013,0.001863,-1.434053,4.120221,-0.055783,-5.660614,1.772323,2.089540,0.013321,-0.073177,0.000000,0.418950,0.145831,0.000000
2.960000,0.181554,-0.019191,-1.499373,1.176936,-0.393667,-0.002703,0.704397,0.172301,0.001409,-1.489401,4.136906,-0.035148,-5.417180,1.559422,2.035846,0.017519,-0.071691,0.000000,0.420679,0.151300,-0.000000
2.970000,0.193359,-0.023119,-1.499400,1.183904,-0.391737,-0.002690,0.689237,0.213744,0.001158,-1.542356,4.151409,-0.015081,-5.173764,1.340318,1.976676,0.021734,-0.070152,0.000000,0.422197,0.156539,0.000000
2.980000,0.205232,-0.027025,-1.499426,1.190719,-0.389392,-0.002679,0.673558,0.255322,0.001105,-1.592878,4.163693,0.004369,-4.930760,1.115375,1.912462,0.025963,-0.068560,0.000000,0.423498,0.161544,0.000000
2.990000,0.217172,-0.030905,-1.499453,1.197374,-0.386631,-0.002667,0.657387,0.297011,0.001243,-1.640974,4.173699,0.023153,-4.688565,0.884957,1.843636,0.030203,-0.066920,0.000000,0.424576,0.166315,0.000000
3.000000,0.229179,-0.034756,-1.499480,1.203865,-0.383452,-0.002653,0.640747,0.338788,0.001566,-1.686653,4.181375,0.041227,-4.447575,0.649428,1.770630,0.034453,-0.065233,0.000000,0.425422,0.170854,0.000000
3.010000,0.241249,-0.038573,-1.499506,1.210187,-0.379855,-0.002635,0.623662,0.380630,0.002065,-1.729897,4.186673,0.058540,-4.209041,0.409103,1.694211,0.038711,-0.063502,0.000000,0.426029,0.175158,0.000000
3.020000,0.253382,-0.042352,-1.499533,1.216337,-0.375839,-0.002612,0.606157,0.422513,0.002734,-1.770802,4.189544,0.075085,-3.972398,0.164400,1.614435,0.042973,-0.061728,0.000000,0.426392,0.179236,-0.000000
3.030000,0.265575,-0.046088,-1.499558,1.222309,-0.371404,-0.002580,0.588254,0.464413,0.003564,-1.809352,4.189948,0.090818,-3.737938,-0.084311,1.531692,0.047238,-0.059915,0.000000,0.426503,0.183087,0.000000
3.040000,0.277827,-0.049778,-1.499584,1.228100,-0.366551,-0.002540,0.569978,0.506304,0.004548,-1.845569,4.187846,0.105711,-3.505951,-0.336662,1.446373,0.051502,-0.058063,0.000000,0.426357,0.186712,-0.000000
3.050000,0.290137,-0.053418,-1.499609,1.233707,-0.361278,-0.002489,0.551350,0.548161,0.005676,-1.879480,4.183204,0.119739,-3.276729,-0.592281,1.358869,0.055764,-0.056176,0.000000,0.425948,0.190114,0.000000
3.060000,0.302501,-0.057002,-1.499634,1.239126,-0.355588,-0.002426,0.532395,0.589956,0.006939,-1.911166,4.175671,0.132856,-3.049247,-0.842716,1.270228,0.060020,-0.054256,0.000000,0.425240,0.193300,0.000000
3.070000,0.314919,-0.060528,-1.499658,1.244354,-0.349479,-0.002350,0.513135,0.631666,0.008330,-1.940536,4.165977,0.145109,-2.825273,-1.096671,1.180103,0.064268,-0.052304,0.000000,0.424304,0.196260,0.000000
3.080000,0.327387,-0.063991,-1.499681,1.249388,-0.342955,-0.002259,0.493592,0.673267,0.009838,-1.967685,4.153723,0.156454,-2.605258,-1.354767,1.088803,0.068505,-0.050323,0.000000,0.423099,0.199003,0.000000
3.090000,0.339906,-0.067386,-1.499703,1.254225,-0.336014,-0.002152,0.473788,0.714732,0.011456,-1.992655,4.138866,0.166882,-2.389656,-1.617622,0.996639,0.072729,-0.048315,0.000000,0.421618,0.201532,0.000000
3.100000,0.352471,-0.070710,-1.499724,1.258863,-0.328660,-0.002029,0.453746,0.756035,0.013173,-2.015494,4.121353,0.176385,-2.178918,-1.885858,0.903921,0.076937,-0.046283,0.000000,0.419855,0.203852,-0.000000
3.110000,0.365082,-0.073958,-1.499743,1.263299,-0.320895,-0.001889,0.433489,0.797162,0.014980,-2.035927,4.102230,0.184940,-1.981691,-2.187912,0.811440,0.081126,-0.044227,0.000000,0.417914,0.205933,0.000000
3.120000,0.377737,-0.077126,-1.499761,1.267532,-0.312718,-0.001729,0.413034,0.838070,0.016869,-2.054778,4.078826,0.192592,-1.789229,-2.493181,0.718967,0.085294,-0.042151,0.000000,0.415525,0.207859,0.000000
3.130000,0.390432,-0.080211,-1.499778,1.271559,-0.304134,-0.001551,0.392400,0.878728,0.018829,-2.071726,4.052365,0.199321,-1.600981,-2.798879,0.626751,0.089436,-0.040055,0.000000,0.412810,0.209596,0.000000
3.140000,0.403167,-0.083207,-1.499792,1.275380,-0.295145,-0.001353,0.371605,0.919107,0.020852,-2.086810,4.022856,0.205129,-1.416396,-3.102220,0.535045,0.093549,-0.037943,0.000000,0.409769,0.211147,0.000000
3.150000,0.415939,-0.086112,-1.499805,1.278991,-0.285753,-0.001134,0.350669,0.959176,0.022929,-2.100064,3.990338,0.210024,-1.234922,-3.400418,0.444098,0.097630,-0.035815,0.000000,0.406406,0.212515,0.000000
3.160000,0.428746,-0.088921,-1.499815,1.282393,-0.275962,-0.000894,0.329607,0.998891,0.025049,-2.111804,3.953702,0.213972,-1.048742,-3.661084,0.355247,0.101675,-0.033672,0.000000,0.402609,0.213732,0.000000
3.170000,0.441586,-0.091630,-1.499823,1.285583,-0.265776,-0.000633,0.308440,1.038241,0.027205,-2.121373,3.915818,0.217084,-0.865461,-3.914661,0.267525,0.105681,-0.031518,0.000000,0.398667,0.214728,0.000000
3.180000,0.454457,-0.094235,-1.499828,1.288561,-0.255198,-0.000350,0.287186,1.077199,0.029388,-2.129125,3.875430,0.219326,-0.685418,-4.161987,0.181052,0.109647,-0.029354,0.000000,0.394454,0.215541,0.000000
3.190000,0.467357,-0.096733,-1.499830,1.291326,-0.244233,-0.000045,0.265863,1.115741,0.031589,-2.135093,3.832596,0.220710,-0.508951,-4.403902,0.095944,0.113570,-0.027182,0.000000,0.389976,0.216172,0.000000
3.200000,0.480283,-0.099119,-1.499828,1.293878,-0.232885,0.000282,0.244490,1.153843,0.033799,-2.139317,3.787367,0.221250,-0.336399,-4.641245,0.012320,0.117446,-0.025003,0.000000,0.385237,0.216624,0.000000
3.210000,0.493234,-0.101389,-1.499824,1.296216,-0.221158,0.000631,0.223082,1.191477,0.036011,-2.141904,3.739405,0.220942,-0.166360,-4.865286,-0.069193,0.121273,-0.022820,0.000000,0.380203,0.216909,0.000000
3.220000,0.506207,-0.103541,-1.499816,1.298340,-0.209057,0.001002,0.201657,1.228624,0.038215,-2.142738,3.689640,0.219849,-0.001127,-5.087605,-0.149047,0.125049,-0.020634,0.000000,0.374971,0.217013,0.000000
3.230000,0.519200,-0.105569,-1.499804,1.300249,-0.196587,0.001395,0.180232,1.265262,0.040405,-2.141945,3.637652,0.217966,0.158749,-5.310212,-0.227187,0.128772,-0.018446,0.000000,0.369497,0.216949,-0.000000
3.240000,0.532211,-0.107471,-1.499788,1.301945,-0.183754,0.001810,0.158823,1.301370,0.042572,-2.139582,3.583428,0.215311,0.312716,-5.535119,-0.303556,0.132438,-0.016259,0.000000,0.363781,0.216722,0.000000
3.250000,0.545238,-0.109243,-1.499767,1.303426,-0.170562,0.002247,0.137446,1.336923,0.044709,-2.135712,3.526935,0.211901,0.460221,-5.764336,-0.378099,0.136046,-0.014074,0.000000,0.357821,0.216338,0.000000
3.260000,0.558279,-0.110881,-1.499743,1.304693,-0.157017,0.002704,0.116118,1.371917,0.046808,-2.129999,3.469598,0.207752,0.590551,-6.037205,-0.450666,0.139595,-0.011893,0.000000,0.351760,0.215763,0.000000
3.270000,0.571331,-0.112382,-1.499713,1.305748,-0.143126,0.003183,0.094850,1.406306,0.048861,-2.123468,3.407845,0.202890,0.714560,-6.313835,-0.521307,0.143081,-0.009717,0.000000,0.345241,0.215100,0.000000
3.280000,0.584393,-0.113743,-1.499679,1.306591,-0.128893,0.003681,0.073653,1.440064,0.050863,-2.115726,3.343317,0.197332,0.832941,-6.591666,-0.589975,0.146499,-0.007547,0.000000,0.338430,0.214309,0.000000
3.290000,0.597462,-0.114959,-1.499640,1.307222,-0.114327,0.004200,0.052539,1.473163,0.052806,-2.106826,3.276016,0.191098,0.946386,-6.868136,-0.656626,0.149848,-0.005385,0.000000,0.331329,0.213395,0.000000
3.300000,0.610537,-0.116028,-1.499595,1.307642,-0.099432,0.004737,0.031520,1.505575,0.054683,-2.096813,3.205968,0.184207,1.055588,-7.140686,-0.721215,0.153125,-0.003231,0.000000,0.323942,0.212363,0.000000
3.310000,0.623614,-0.116947,-1.499545,1.307852,-0.084217,0.005293,0.010604,1.537264,0.056488,-2.085940,3.132371,0.176660,1.166635,-7.385207,-0.783176,0.156325,-0.001087,0.000000,0.316190,0.211238,0.000000
3.320000,0.636693,-0.117711,-1.499489,1.307854,-0.068689,0.005867,-0.010195,1.568215,0.058214,-2.073733,3.057323,0.168527,1.274164,-7.623325,-0.843049,0.159448,0.001045,0.000000,0.308285,0.209972,0.000000
3.330000,0.649771,-0.118319,-1.499427,1.307649,-0.052856,0.006457,-0.030867,1.598403,0.059856,-2.060468,2.979926,0.159806,1.378206,-7.855119,-0.900854,0.162490,0.003166,0.000000,0.300138,0.208592,0.000000
3.340000,0.662845,-0.118767,-1.499360,1.307237,-0.036724,0.007064,-0.051401,1.627806,0.061408,-2.046180,2.900241,0.150517,1.478791,-8.080666,-0.956610,0.165450,0.005273,0.000000,0.291758,0.207103,0.000000
3.350000,0.675915,-0.119053,-1.499286,1.306621,-0.020302,0.007685,-0.071787,1.656400,0.062865,-2.030904,2.818333,0.140680,1.575952,-8.300046,-1.010337,0.168325,0.007365,0.000000,0.283152,0.205508,0.000000
3.360000,0.688977,-0.119173,-1.499206,1.305802,-0.003599,0.008321,-0.092016,1.684165,0.064220,-2.014655,2.734244,0.130320,1.669270,-8.512900,-1.062154,0.171112,0.009441,0.000000,0.274326,0.203808,0.000000
3.370000,0.702030,-0.119124,-1.499120,1.304782,0.013378,0.008969,-0.112077,1.711078,0.065469,-1.997509,2.648075,0.119448,1.759283,-8.719795,-1.111967,0.173810,0.011501,0.000000,0.265291,0.202011,0.000000
3.380000,0.715072,-0.118904,-1.499027,1.303561,0.030620,0.009630,-0.131963,1.737120,0.066608,-1.979480,2.559867,0.108088,1.846076,-8.920864,-1.159783,0.176417,0.013543,0.000000,0.256054,0.200119,0.000000
3.390000,0.728101,-0.118511,-1.498927,1.302143,0.048118,0.010301,-0.151664,1.762269,0.067630,-1.960598,2.469677,0.096259,1.929738,-9.116239,-1.205608,0.178931,0.015566,0.000000,0.246620,0.198135,0.000000
3.400000,0.741114,-0.117941,-1.498821,1.300529,0.065862,0.010982,-0.171172,1.786507,0.068531,-1.940895,2.377561,0.083982,2.010355,-9.306050,-1.249451,0.181349,0.017570,0.000000,0.236998,0.196062,0.000000
3.410000,0.754111,-0.117193,-1.498707,1.298720,0.083845,0.011671,-0.190479,1.809815,0.069308,-1.920379,2.283676,0.071283,2.087459,-9.493004,-1.291464,0.183670,0.019552,0.000000,0.227205,0.193901,0.000000
3.420000,0.767088,-0.116263,-1.498587,1.296720,0.102055,0.012368,-0.209577,1.832174,0.069956,-1.899131,2.187834,0.058166,2.161761,-9.674343,-1.331489,0.185893,0.021514,0.000000,0.217222,0.191660,-0.000000
3.430000,0.780044,-0.115151,-1.498460,1.294529,0.120485,0.013070,-0.228459,1.853566,0.070470,-1.877153,2.090208,0.044660,2.233413,-9.849884,-1.369514,0.188014,0.023453,0.000000,0.207068,0.189340,0.000000
3.440000,0.792978,-0.113853,-1.498326,1.292151,0.139123,0.013776,-0.247118,1.873972,0.070847,-1.854471,1.990857,0.030783,2.302572,-10.019445,-1.405529,0.190033,0.025368,0.000000,0.196751,0.186945,0.000000
3.450000,0.805887,-0.112368,-1.498184,1.289588,0.157961,0.014486,-0.265546,1.893377,0.071084,-1.831109,1.889840,0.016556,2.369391,-10.182842,-1.439522,0.191949,0.027260,0.000000,0.186277,0.184475,0.000000
3.460000,0.818769,-0.110693,-1.498036,1.286841,0.176988,0.015198,-0.283738,1.911764,0.071178,-1.807094,1.787223,0.002009,2.434137,-10.339942,-1.471747,0.193758,0.029126,0.000000,0.175655,0.181935,0.000000
3.470000,0.831623,-0.108827,-1.497881,1.283914,0.196193,0.015909,-0.301686,1.929117,0.071124,-1.782438,1.683065,-0.012861,2.496839,-10.490505,-1.501895,0.195461,0.030968,0.000000,0.164890,0.179326,0.000000
3.480000,0.844447,-0.106769,-1.497718,1.280808,0.215566,0.016620,-0.319385,1.945420,0.070919,-1.757164,1.577435,-0.028021,2.557639,-10.634342,-1.529922,0.197056,0.032782,0.000000,0.153991,0.176650,0.000000
3.490000,0.857239,-0.104515,-1.497548,1.277527,0.235098,0.017327,-0.336827,1.960661,0.070562,-1.731291,1.470401,-0.043452,2.616677,-10.771262,-1.555785,0.198541,0.034570,0.000000,0.142965,0.173910,0.000000
3.500000,0.869997,-0.102066,-1.497371,1.274073,0.254776,0.018030,-0.354008,1.974824,0.070050,-1.704836,1.362034,-0.059130,2.674095,-10.901077,-1.579440,0.199915,0.036330,0.000000,0.131820,0.171107,-0.000000
3.510000,0.882719,-0.099419,-1.497188,1.270448,0.274591,0.018728,-0.370922,1.987897,0.069379,-1.677825,1.252410,-0.075021,2.730319,-11.023744,-1.601153,0.201177,0.038062,0.000000,0.120564,0.168245,0.000000
3.520000,0.895405,-0.096574,-1.496997,1.266655,0.294530,0.019417,-0.387563,1.999868,0.068548,-1.650247,1.141590,-0.091131,2.785170,-11.138908,-1.620534,0.202326,0.039764,0.000000,0.109205,0.165323,0.000000
3.530000,0.908052,-0.093528,-1.496799,1.262697,0.314584,0.020098,-0.403925,2.010725,0.067556,-1.622126,1.029658,-0.107423,2.838755,-11.246361,-1.637499,0.203360,0.041437,0.000000,0.097750,0.162343,0.000000
3.540000,0.920659,-0.090282,-1.496595,1.258578,0.334741,0.020768,-0.420004,2.020458,0.066399,-1.593475,0.916690,-0.123873,2.891180,-11.345896,-1.651968,0.204280,0.043079,0.000000,0.086207,0.159308,0.000000
3.550000,0.933223,-0.086833,-1.496384,1.254298,0.354990,0.021425,-0.435793,2.029056,0.065078,-1.564306,0.802767,-0.140454,2.942550,-11.437305,-1.663860,0.205084,0.044690,0.000000,0.074586,0.156218,0.000000
3.560000,0.945744,-0.083182,-1.496166,1.249863,0.375318,0.022069,-0.451289,2.036510,0.063590,-1.534646,0.687981,-0.157130,2.993440,-11.520629,-1.673379,0.205772,0.046270,0.000000,0.062896,0.153077,0.000000
3.570000,0.958220,-0.079327,-1.495943,1.245274,0.395716,0.022697,-0.466484,2.042813,0.061935,-1.504461,0.572394,-0.173900,3.043431,-11.595382,-1.680121,0.206342,0.047818,0.000000,0.051143,0.149882,-0.000000
3.580000,0.970649,-0.075267,-1.495713,1.240534,0.416171,0.023307,-0.481376,2.047956,0.060112,-1.473780,0.456103,-0.190723,3.092573,-11.661325,-1.683971,0.206795,0.049332,0.000000,0.039336,0.146635,0.000000
3.590000,0.983030,-0.071003,-1.495477,1.235647,0.436671,0.023898,-0.495958,2.051933,0.058121,-1.442612,0.339197,-0.207569,3.140914,-11.718221,-1.684811,0.207129,0.050814,0.000000,0.027486,0.143340,0.000000
3.600000,0.995361,-0.066534,-1.495235,1.230616,0.457206,0.024469,-0.510227,2.054738,0.055961,-1.410965,0.221769,-0.224408,3.188505,-11.765831,-1.682525,0.207344,0.052262,0.000000,0.015601,0.139995,0.000000
3.610000,1.007642,-0.061859,-1.494987,1.225444,0.477762,0.025017,-0.524176,2.056367,0.053633,-1.378871,0.103928,-0.241201,3.236052,-11.804296,-1.677193,0.207441,0.053675,0.000000,0.003692,0.136606,0.000000
3.620000,1.019870,-0.056979,-1.494734,1.220133,0.498329,0.025541,-0.537803,2.056816,0.051137,-1.346275,-0.014267,-0.257932,3.282866,-11.832953,-1.668477,0.207418,0.055053,0.000000,-0.008235,0.133167,-0.000000
3.630000,1.032044,-0.051892,-1.494476,1.214689,0.518894,0.026039,-0.551100,2.056081,0.048474,-1.313216,-0.132698,-0.274559,3.328915,-11.851518,-1.656235,0.207276,0.056397,0.000000,-0.020169,0.129683,0.000000
3.640000,1.044163,-0.046601,-1.494214,1.209113,0.539447,0.026510,-0.564065,2.054161,0.045646,-1.279700,-0.251263,-0.291045,3.374169,-11.859706,-1.640327,0.207015,0.057704,0.000000,-0.032098,0.126154,0.000000
3.650000,1.056226,-0.041104,-1.493946,1.203408,0.559974,0.026952,-0.576693,2.051056,0.042654,-1.245735,-0.369856,-0.307353,3.418596,-11.857232,-1.620612,0.206634,0.058974,0.000000,-0.044013,0.122582,0.000000
3.660000,1.068231,-0.035401,-1.493675,1.197579,0.580465,0.027363,-0.588955,2.046701,0.039500,-1.209137,-0.494203,-0.323421,3.406770,-11.696511,-1.597521,0.206128,0.060206,0.000000,-0.056471,0.118750,0.000000
3.670000,1.080177,-0.029494,-1.493399,1.191630,0.600906,0.027741,-0.600876,2.041177,0.036186,-1.175107,-0.610385,-0.339264,3.400838,-11.542597,-1.570271,0.205505,0.061401,0.000000,-0.068117,0.115176,0.000000
3.680000,1.092063,-0.023383,-1.493120,1.185563,0.621285,0.028086,-0.612457,2.034498,0.032716,-1.141079,-0.725137,-0.354812,3.407550,-11.413243,-1.538651,0.204766,0.062559,0.000000,-0.079606,0.111605,0.000000
3.690000,1.103888,-0.017069,-1.492838,1.179382,0.641592,0.028395,-0.623697,2.026678,0.029091,-1.106891,-0.838791,-0.370021,3.433659,-11.326201,-1.502449,0.203913,0.063681,0.000000,-0.090972,0.108022,0.000000
3.700000,1.115650,-0.010552,-1.492552,1.173090,0.661815,0.028667,-0.634593,2.017724,0.025317,-1.072318,-0.951861,-0.384845,3.485916,-11.299224,-1.461455,0.202947,0.064765,0.000000,-0.102263,0.104405,-0.000000
3.710000,1.127349,-0.003833,-1.492264,1.166694,0.681935,0.028901,-0.645253,2.007931,0.021395,-1.047348,-1.038196,-0.399332,3.830846,-12.027965,-1.412983,0.201897,0.065824,0.000000,-0.110936,0.101747,-0.000000
3.720000,1.138984,0.003086,-1.491974,1.160190,0.701960,0.029095,-0.655529,1.996936,0.017332,-1.007272,-1.162199,-0.413199,4.183619,-12.769269,-1.359600,0.200726,0.066841,0.000000,-0.123255,0.097589,0.000000
3.730000,1.150553,0.010206,-1.491683,1.153585,0.721869,0.029247,-0.665387,1.984663,0.013133,-0.963733,-1.293406,-0.426508,4.519177,-13.457879,-1.301397,0.199429,0.067814,0.000000,-0.136256,0.093094,0.000000
3.740000,1.162055,0.017523,-1.491390,1.146884,0.741649,0.029357,-0.674793,1.971046,0.008804,-0.917029,-1.430963,-0.439211,4.812463,-14.028540,-1.238465,0.197999,0.068740,0.000000,-0.149856,0.088292,0.000000
3.750000,1.173490,0.025038,-1.491096,1.140091,0.761286,0.029423,-0.683718,1.956028,0.004351,-0.867709,-1.573366,-0.451261,5.038420,-14.415997,-1.170898,0.196430,0.069614,0.000000,-0.163911,0.083237,0.000000
3.760000,1.184857,0.032749,-1.490801,1.133206,0.780778,0.029443,-0.691948,1.939072,-0.000218,-0.798809,-1.764313,-0.462503,4.723423,-13.396719,-1.101569,0.194672,0.070417,0.000000,-0.182674,0.076246,-0.000000
3.770000,1.196154,0.040653,-1.490507,1.126247,0.800078,0.029418,-0.699706,1.920779,-0.004897,-0.753423,-1.892436,-0.473153,4.345910,-12.205555,-1.027446,0.192781,0.071170,0.000000,-0.195308,0.071604,0.000000
3.780000,1.207381,0.048750,-1.490213,1.119213,0.819190,0.029345,-0.707030,1.901265,-0.009679,-0.712000,-2.008106,-0.483036,3.935748,-10.919079,-0.948282,0.190770,0.071877,0.000000,-0.206714,0.067365,0.000000
3.790000,1.218538,0.057036,-1.489920,1.112108,0.838100,0.029224,-0.713960,1.880660,-0.014555,-0.674717,-2.110755,-0.492101,3.522807,-9.613865,-0.863826,0.188651,0.072543,0.000000,-0.216837,0.063547,0.000000
3.800000,1.229623,0.065511,-1.489629,1.104935,0.856800,0.029054,-0.720538,1.859093,-0.019518,-0.641454,-2.200577,-0.500294,3.136957,-8.366486,-0.773831,0.186437,0.073173,0.000000,-0.225692,0.060138,0.000000
3.810000,1.240637,0.074172,-1.489339,1.097701,0.875272,0.028833,-0.726910,1.836955,-0.024558,-0.621834,-2.253971,-0.507597,3.061787,-7.873890,-0.677062,0.184167,0.073780,0.000000,-0.230979,0.058092,-0.000000
3.820000,1.251577,0.083016,-1.489052,1.090401,0.893528,0.028562,-0.732976,1.814028,-0.029666,-0.591359,-2.330809,-0.513859,3.042378,-7.516313,-0.574376,0.181819,0.074355,0.000000,-0.238529,0.054978,0.000000
3.830000,1.262444,0.092041,-1.488768,1.083042,0.911550,0.028240,-0.738737,1.790348,-0.034832,-0.560804,-2.404749,-0.519064,3.077531,-7.294366,-0.465645,0.179397,0.074898,0.000000,-0.245776,0.051865,0.000000
3.840000,1.273238,0.101246,-1.488488,1.075628,0.929332,0.027865,-0.744190,1.765938,-0.040044,-0.529630,-2.477151,-0.523152,3.166048,-7.208657,-0.350742,0.176904,0.075409,0.000000,-0.252854,0.048702,0.000000
3.850000,1.283957,0.110627,-1.488211,1.068160,0.946866,0.027439,-0.749326,1.740806,-0.045291,-0.497309,-2.549379,-0.526058,3.306730,-7.259798,-0.229537,0.174340,0.075887,0.000000,-0.259894,0.045437,0.000000
3.860000,1.294601,0.120182,-1.487939,1.060645,0.964138,0.026960,-0.754230,1.715222,-0.050563,-0.472499,-2.597428,-0.527944,3.730077,-8.089364,-0.096258,0.171733,0.076341,0.000000,-0.264554,0.042927,0.000000
3.870000,1.305170,0.129909,-1.487672,1.053080,0.981159,0.026428,-0.758761,1.688828,-0.055845,-0.432980,-2.682750,-0.528216,4.174820,-8.978514,0.042886,0.169046,0.076757,0.000000,-0.272832,0.038972,0.000000
3.880000,1.315662,0.139805,-1.487411,1.045471,0.997912,0.025843,-0.762875,1.661537,-0.061123,-0.389030,-2.776937,-0.527069,4.611389,-9.849370,0.187334,0.166273,0.077130,0.000000,-0.281958,0.034591,0.000000
3.890000,1.326079,0.149866,-1.487155,1.037824,1.014387,0.025205,-0.766528,1.633262,-0.066382,-0.340878,-2.879417,-0.524453,5.010215,-10.624057,0.336523,0.163405,0.077457,0.000000,-0.291879,0.029809,0.000000
3.900000,1.336419,0.160091,-1.486907,1.030142,1.030574,0.024515,-0.769680,1.603925,-0.071607,-0.289050,-2.988838,-0.520324,5.341726,-11.224699,0.489888,0.160433,0.077733,0.000000,-0.302467,0.024677,0.000000
3.910000,1.346682,0.170477,-1.486665,1.022427,1.046475,0.023773,-0.772111,1.572971,-0.076783,-0.217015,-3.148990,-0.514627,5.138079,-10.413622,0.646459,0.157305,0.077937,0.000000,-0.318014,0.017557,0.000000
3.920000,1.356867,0.181020,-1.486431,1.014696,1.062046,0.022980,-0.774029,1.540976,-0.081894,-0.166965,-3.248261,-0.507367,4.861645,-9.414764,0.806131,0.154076,0.078090,0.000000,-0.327595,0.012636,-0.000000
3.930000,1.366975,0.191717,-1.486206,1.006948,1.077291,0.022136,-0.775460,1.508041,-0.086925,-0.119944,-3.336873,-0.498496,4.536519,-8.292266,0.968392,0.150757,0.078194,0.000000,-0.336124,0.008031,0.000000
3.940000,1.377006,0.202565,-1.485989,0.999188,1.092204,0.021242,-0.776439,1.474277,-0.091859,-0.076317,-3.413908,-0.487992,4.186798,-7.110268,1.132729,0.147357,0.078253,0.000000,-0.343511,0.003778,0.000000
3.950000,1.386959,0.213560,-1.485781,0.991420,1.106775,0.020299,-0.776999,1.439802,-0.096679,-0.036210,-3.479094,-0.475836,3.836578,-5.932910,1.298628,0.143890,0.078272,0.000000,-0.349728,-0.000110,-0.000000
3.960000,1.396834,0.224699,-1.485583,0.983652,1.120990,0.019308,-0.777280,1.405001,-0.101371,-0.009194,-3.508142,-0.462102,3.754642,-5.447036,1.467759,0.140393,0.078263,0.000000,-0.352389,-0.002685,-0.000000
3.970000,1.406632,0.235978,-1.485395,0.975879,1.134864,0.018272,-0.777185,1.369655,-0.105916,0.028019,-3.560424,-0.446577,3.690439,-5.017834,1.637160,0.136844,0.078218,0.000000,-0.357322,-0.006258,-0.000000
3.980000,1.416352,0.247395,-1.485218,0.968110,1.148382,0.017191,-0.776721,1.333806,-0.110297,0.064654,-3.608647,-0.429361,3.638102,-4.633194,1.806052,0.133248,0.078137,0.000000,-0.361851,-0.009758,0.000000
3.990000,1.425994,0.258945,-1.485051,0.960346,1.161539,0.016067,-0.775893,1.297494,-0.114497,0.100801,-3.653196,-0.410461,3.591766,-4.281006,1.973655,0.129608,0.078021,0.000000,-0.366016,-0.013197,0.000000
4.000000,1.435559,0.270624,-1.484897,0.952593,1.174330,0.014901,-0.774707,1.260754,-0.118500,0.136490,-3.694335,-0.389894,3.545567,-3.949163,2.139190,0.125929,0.077871,0.000000,-0.369845,-0.016577,-0.000000
4.010000,1.445046,0.282430,-1.484754,0.944853,1.186754,0.013697,-0.773138,1.223571,-0.122290,0.174164,-3.736584,-0.367714,3.431226,-3.514980,2.302572,0.122208,0.077684,0.000000,-0.373786,-0.020143,0.000000
4.020000,1.454456,0.294358,-1.484623,0.937130,1.198802,0.012456,-0.771227,1.186036,-0.125849,0.207887,-3.769603,-0.343886,3.312933,-3.090463,2.462241,0.118454,0.077465,0.000000,-0.376821,-0.023304,0.000000
4.030000,1.463789,0.306405,-1.484505,0.929429,1.210474,0.011181,-0.768985,1.148193,-0.129162,0.240415,-3.798431,-0.318484,3.192464,-2.677041,2.617331,0.114673,0.077215,0.000000,-0.379450,-0.026335,-0.000000
4.040000,1.473045,0.318566,-1.484399,0.921752,1.221765,0.009874,-0.766423,1.110081,-0.132214,0.271735,-3.823186,-0.291558,3.071596,-2.276146,2.766978,0.110867,0.076936,0.000000,-0.381685,-0.029237,0.000000
4.050000,1.482224,0.330839,-1.484307,0.914102,1.232674,0.008538,-0.763554,1.071742,-0.134989,0.301852,-3.844000,-0.263166,2.952105,-1.889207,2.910316,0.107040,0.076627,0.000000,-0.383542,-0.032010,-0.000000
4.060000,1.491327,0.343219,-1.484229,0.906482,1.243199,0.007175,-0.760402,1.033235,-0.137472,0.329635,-3.859106,-0.233366,2.864876,-1.566030,3.046245,0.103199,0.076293,0.000000,-0.384847,-0.034543,0.000000
4.070000,1.500354,0.355702,-1.484164,0.898895,1.253338,0.005789,-0.756964,0.994571,-0.139652,0.357854,-3.873198,-0.202257,2.779013,-1.253747,3.174164,0.099344,0.075933,0.000000,-0.386066,-0.037113,0.000000
4.080000,1.509305,0.368284,-1.484113,0.891344,1.263090,0.004383,-0.753248,0.955781,-0.141514,0.385214,-3.884202,-0.169913,2.692732,-0.947866,3.293236,0.095479,0.075548,0.000000,-0.386997,-0.039592,0.000000
4.090000,1.518181,0.380962,-1.484076,0.883831,1.272453,0.002960,-0.749263,0.916897,-0.143046,0.411702,-3.892161,-0.136425,2.604243,-0.643894,3.402627,0.091605,0.075138,0.000000,-0.387645,-0.041981,0.000000
4.100000,1.526982,0.393732,-1.484054,0.876359,1.281427,0.001523,-0.745017,0.877948,-0.144239,0.437286,-3.897071,-0.101895,2.511761,-0.337338,3.501499,0.087727,0.074705,0.000000,-0.388013,-0.044276,-0.000000
4.110000,1.535708,0.406589,-1.484046,0.868931,1.290013,0.000077,-0.740512,0.838939,-0.145080,0.462656,-3.901347,-0.066332,2.394845,0.038500,3.586470,0.083843,0.074249,0.000000,-0.388341,-0.046547,-0.000000
4.120000,1.544361,0.419531,-1.484052,0.861550,1.298207,-0.001377,-0.735768,0.799934,-0.145563,0.485998,-3.899065,-0.030092,2.272644,0.418291,3.659563,0.079961,0.073771,0.000000,-0.388043,-0.048618,0.000000
4.130000,1.552939,0.432552,-1.484073,0.854217,1.306012,-0.002834,-0.730796,0.760970,-0.145679,0.508093,-3.892979,0.006818,2.145657,0.798910,3.720251,0.076084,0.073274,0.000000,-0.387395,-0.050565,0.000000
4.140000,1.561445,0.445650,-1.484109,0.846934,1.313427,-0.004289,-0.725610,0.722087,-0.145424,0.528897,-3.883095,0.044270,2.014380,1.177233,3.768011,0.072214,0.072757,0.000000,-0.386396,-0.052386,0.000000
4.150000,1.569878,0.458820,-1.484159,0.839705,1.320454,-0.005741,-0.720223,0.683321,-0.144793,0.548368,-3.869452,0.082133,1.879309,1.550136,3.802318,0.068357,0.072224,0.000000,-0.385051,-0.054079,0.000000
4.160000,1.578239,0.472058,-1.484224,0.832530,1.327093,-0.007184,-0.714645,0.644718,-0.143779,0.566747,-3.851332,0.120415,1.733991,1.894586,3.818993,0.064515,0.071673,0.000000,-0.383288,-0.055666,-0.000000
4.170000,1.586529,0.485360,-1.484303,0.825413,1.333348,-0.008615,-0.708893,0.606306,-0.142384,0.583352,-3.830702,0.158630,1.586725,2.229806,3.821613,0.060692,0.071108,0.000000,-0.381306,-0.057084,0.000000
4.180000,1.594748,0.498723,-1.484396,0.818353,1.339220,-0.010030,-0.702982,0.568115,-0.140607,0.598480,-3.806769,0.196800,1.438859,2.555110,3.810101,0.056890,0.070530,0.000000,-0.379024,-0.058361,-0.000000
4.190000,1.602896,0.512143,-1.484503,0.811353,1.344712,-0.011426,-0.696928,0.530181,-0.138449,0.612131,-3.779635,0.234784,1.291742,2.869811,3.784381,0.053113,0.069940,0.000000,-0.376453,-0.059501,-0.000000
4.200000,1.610975,0.525616,-1.484624,0.804415,1.349825,-0.012798,-0.690745,0.492533,-0.135912,0.624321,-3.749411,0.272440,1.146721,3.173224,3.744375,0.049362,0.069339,0.000000,-0.373601,-0.060503,0.000000
4.210000,1.618985,0.539139,-1.484759,0.797539,1.354563,-0.014143,-0.684454,0.455205,-0.133001,0.634369,-3.715994,0.309704,1.023029,3.459193,3.687989,0.045642,0.068729,0.000000,-0.370459,-0.061302,0.000000
4.220000,1.626926,0.552706,-1.484907,0.790726,1.358930,-0.015457,-0.678061,0.418223,-0.129720,0.643992,-3.680022,0.346242,0.901939,3.733170,3.617410,0.041954,0.068112,0.000000,-0.367088,-0.062070,0.000000
4.230000,1.634799,0.566316,-1.485068,0.783978,1.362929,-0.016736,-0.671578,0.381613,-0.126078,0.652414,-3.641371,0.382005,0.782612,3.995140,3.532809,0.038301,0.067487,0.000000,-0.363476,-0.062730,-0.000000
4.240000,1.642606,0.579964,-1.485242,0.777295,1.366564,-0.017977,-0.665017,0.345404,-0.122083,0.659648,-3.600160,0.416852,0.664206,4.245084,3.434354,0.034685,0.066857,0.000000,-0.359632,-0.063284,0.000000
4.250000,1.650346,0.593646,-1.485428,0.770678,1.369838,-0.019177,-0.658389,0.309618,-0.117745,0.665698,-3.556509,0.450647,0.545878,4.482988,3.322216,0.031109,0.066221,0.000000,-0.355566,-0.063733,0.000000
4.260000,1.658020,0.607359,-1.485625,0.764127,1.372758,-0.020331,-0.651703,0.274277,-0.113073,0.670913,-3.510923,0.483371,0.417950,4.718493,3.193566,0.027574,0.065581,0.000000,-0.351327,-0.064111,0.000000
4.270000,1.665628,0.621100,-1.485834,0.757644,1.375326,-0.021437,-0.644975,0.239407,-0.108082,0.674450,-3.462615,0.514609,0.289501,4.940742,3.051939,0.024083,0.064939,0.000000,-0.346834,-0.064337,0.000000
4.280000,1.673173,0.634865,-1.486054,0.751228,1.377547,-0.022492,-0.638219,0.205032,-0.102786,0.676702,-3.412156,0.544368,0.160770,5.148533,2.897875,0.020638,0.064295,0.000000,-0.342142,-0.064449,0.000000
4.290000,1.680653,0.648650,-1.486284,0.744880,1.379428,-0.023492,-0.631446,0.171171,-0.097200,0.677665,-3.359696,0.572526,0.031998,5.340669,2.731909,0.017241,0.063650,0.000000,-0.337262,-0.064447,0.000000
4.300000,1.688070,0.662452,-1.486523,0.738599,1.380973,-0.024435,-0.624670,0.137844,-0.091341,0.677342,-3.305399,0.598968,-0.096574,5.515948,2.554579,0.013893,0.063006,0.000000,-0.332210,-0.064330,0.000000
4.310000,1.695425,0.676268,-1.486772,0.732386,1.382186,-0.025318,-0.617900,0.105079,-0.085226,0.676052,-3.248512,0.623671,-0.232706,5.649789,2.364178,0.010598,0.062363,0.000000,-0.326905,-0.064132,0.000000
4.320000,1.702718,0.690095,-1.487029,0.726241,1.383076,-0.026139,-0.611153,0.072878,-0.078874,0.673051,-3.191414,0.646318,-0.367176,5.767238,2.163762,0.007356,0.061724,0.000000,-0.321586,-0.063777,0.000000
4.330000,1.709950,0.703929,-1.487295,0.720163,1.383646,-0.026895,-0.604443,0.041254,-0.072306,0.668718,-3.133216,0.666915,-0.498766,5.869960,1.954144,0.004167,0.061088,0.000000,-0.316159,-0.063303,0.000000
4.340000,1.717122,0.717767,-1.487567,0.714152,1.383903,-0.027584,-0.597783,0.010217,-0.065543,0.663089,-3.074058,0.685373,-0.626256,5.959618,1.736136,0.001033,0.060458,0.000000,-0.310635,-0.062714,0.000000
4.350000,1.724234,0.731606,-1.487846,0.708207,1.383852,-0.028205,-0.591185,-0.020224,-0.058606,0.656211,-3.014062,0.701613,-0.748424,6.037877,1.510550,-0.002046,0.059834,0.000000,-0.305024,-0.062013,0.000000
4.360000,1.731286,0.745443,-1.488131,0.702328,1.383501,-0.028756,-0.584669,-0.050069,-0.051518,0.647590,-2.954009,0.715611,-0.850087,6.123477,1.276944,-0.005068,0.059219,0.000000,-0.299403,-0.061150,0.000000
4.370000,1.738280,0.759275,-1.488421,0.696514,1.382853,-0.029235,-0.578237,-0.079302,-0.044302,0.638606,-2.892388,0.727188,-0.945698,6.198913,1.037538,-0.008033,0.058611,0.000000,-0.293614,-0.060265,0.000000
4.380000,1.745217,0.773099,-1.488715,0.690763,1.381917,-0.029641,-0.571900,-0.107915,-0.036982,0.628694,-2.830066,0.736346,-1.035749,6.263760,0.793297,-0.010940,0.058014,0.000000,-0.287742,-0.059300,0.000000
4.390000,1.752096,0.786912,-1.489014,0.685075,1.380697,-0.029974,-0.565666,-0.135901,-0.029583,0.617908,-2.767150,0.743041,-1.120728,6.317591,0.545186,-0.013788,0.057426,0.000000,-0.281797,-0.058259,0.000000
4.400000,1.758918,0.800712,-1.489315,0.679449,1.379201,-0.030233,-0.559544,-0.163256,-0.022129,0.606295,-2.703752,0.747240,-1.201126,6.359978,0.294172,-0.016576,0.056848,0.000000,-0.275785,-0.057147,-0.000000
4.410000,1.765685,0.814495,-1.489618,0.673884,1.377434,-0.030417,-0.553544,-0.189970,-0.014646,0.593802,-2.639525,0.748937,-1.274991,6.378741,0.040748,-0.019303,0.056283,0.000000,-0.269670,-0.055957,0.000000
4.420000,1.772396,0.828260,-1.489923,0.668378,1.375403,-0.030526,-0.547671,-0.216046,-0.007159,0.580697,-2.575689,0.748073,-1.345554,6.386646,-0.213590,-0.021969,0.055729,0.000000,-0.263573,-0.054717,0.000000
4.430000,1.779053,0.842002,-1.490228,0.662930,1.373115,-0.030560,-0.541932,-0.241484,0.000307,0.566900,-2.511825,0.744666,-1.413603,6.384705,-0.467820,-0.024574,0.055188,0.000000,-0.257448,-0.053417,-0.000000
4.440000,1.785655,0.855721,-1.490534,0.657539,1.370576,-0.030520,-0.536335,-0.266283,0.007726,0.552431,-2.448024,0.738720,-1.479928,6.373930,-0.720919,-0.027118,0.054661,0.000000,-0.251304,-0.052059,0.000000
4.450000,1.792204,0.869413,-1.490838,0.652203,1.367791,-0.030406,-0.530886,-0.290445,0.015073,0.537304,-2.384372,0.730254,-1.545316,6.355332,-0.971864,-0.029600,0.054147,0.000000,-0.245146,-0.050643,-0.000000
4.460000,1.798699,0.883076,-1.491142,0.646921,1.364769,-0.030219,-0.525580,-0.313981,0.022322,0.522499,-2.321878,0.719279,-1.635160,6.353611,-1.219252,-0.032022,0.053647,0.000000,-0.239077,-0.049270,0.000000
4.470000,1.805142,0.896708,-1.491443,0.641691,1.361514,-0.029960,-0.520439,-0.336882,0.029450,0.505707,-2.258386,0.705866,-1.722632,6.343192,-1.462486,-0.034382,0.053161,0.000000,-0.232874,-0.047702,-0.000000
4.480000,1.811533,0.910306,-1.491741,0.636511,1.358034,-0.029630,-0.515469,-0.359149,0.036432,0.488062,-2.195050,0.690046,-1.805510,6.322186,-1.700589,-0.036680,0.052692,0.000000,-0.226654,-0.046054,0.000000
4.490000,1.817873,0.923868,-1.492035,0.631381,1.354333,-0.029232,-0.510680,-0.380784,0.043243,0.469620,-2.131984,0.671875,-1.881568,6.288705,-1.932583,-0.038915,0.052240,0.000000,-0.220427,-0.044332,0.000000
4.500000,1.824161,0.937391,-1.492325,0.626297,1.350420,-0.028766,-0.506079,-0.401790,0.049861,0.450460,-2.069324,0.651418,-1.948584,6.240861,-2.157491,-0.041088,0.051805,0.000000,-0.214206,-0.042542,0.000000
4.510000,1.830399,0.950875,-1.492610,0.621259,1.346299,-0.028235,-0.501680,-0.422161,0.056263,0.430058,-2.006163,0.628693,-1.988491,6.150032,-2.372860,-0.043198,0.051389,0.000000,-0.207898,-0.040631,0.000000
4.520000,1.836586,0.964317,-1.492889,0.616263,1.341979,-0.027641,-0.497479,-0.441917,0.062428,0.410022,-1.945179,0.603925,-2.016848,6.044338,-2.579371,-0.045246,0.050992,0.000000,-0.201777,-0.038761,0.000000
4.530000,1.842724,0.977714,-1.493163,0.611308,1.337463,-0.026987,-0.493480,-0.461068,0.068335,0.389761,-1.885321,0.577138,-2.033370,5.925162,-2.776227,-0.047234,0.050613,0.000000,-0.195735,-0.036873,-0.000000
4.540000,1.848813,0.991065,-1.493429,0.606393,1.332759,-0.026276,-0.489684,-0.479628,0.073965,0.369395,-1.826716,0.548435,-2.037774,5.793890,-2.962633,-0.049161,0.050254,0.000000,-0.189786,-0.034977,0.000000
4.550000,1.854852,1.004369,-1.493688,0.601514,1.327872,-0.025509,-0.486092,-0.497607,0.079298,0.349047,-1.769479,0.517923,-2.029775,5.651908,-3.137792,-0.051030,0.049913,0.000000,-0.183942,-0.033086,-0.000000
4.560000,1.860843,1.017622,-1.493939,0.596671,1.322809,-0.024691,-0.482727,-0.515011,0.084316,0.326621,-1.712714,0.485620,-1.953006,5.475482,-3.298395,-0.052839,0.049594,0.000000,-0.178110,-0.030985,0.000000
4.570000,1.866786,1.030824,-1.494182,0.591859,1.317574,-0.023824,-0.479557,-0.531868,0.089005,0.307503,-1.658864,0.451885,-1.870134,5.294191,-3.446467,-0.054593,0.049292,0.000000,-0.172544,-0.029225,0.000000
4.580000,1.872680,1.043973,-1.494415,0.587079,1.312173,-0.022912,-0.476574,-0.548195,0.093349,0.289217,-1.606832,0.416734,-1.787742,5.112497,-3.581520,-0.056291,0.049008,0.000000,-0.167133,-0.027551,-0.000000
4.590000,1.878527,1.057067,-1.494640,0.582327,1.306612,-0.021958,-0.473770,-0.564010,0.097336,0.271725,-1.556600,0.380299,-1.712413,4.934862,-3.703066,-0.057936,0.048740,0.000000,-0.161875,-0.025961,0.000000
4.600000,1.884327,1.070105,-1.494854,0.577603,1.300894,-0.020966,-0.471137,-0.579332,0.100952,0.254923,-1.508106,0.342719,-1.650732,4.765746,-3.810616,-0.059529,0.048488,0.000000,-0.156765,-0.024442,-0.000000
4.610000,1.890080,1.083085,-1.495059,0.572903,1.295027,-0.019940,-0.468620,-0.594211,0.104185,0.243269,-1.464298,0.304002,-1.726140,4.686801,-3.900314,-0.061075,0.048245,0.000000,-0.152109,-0.023453,-0.000000
4.620000,1.895785,1.096005,-1.495253,0.568228,1.289013,-0.018884,-0.466275,-0.608621,0.107029,0.225576,-1.417790,0.264611,-1.814052,4.615846,-3.975454,-0.062571,0.048018,0.000000,-0.147148,-0.021844,0.000000
4.630000,1.901444,1.108864,-1.495437,0.563577,1.282856,-0.017801,-0.464111,-0.622569,0.109475,0.206972,-1.371971,0.224542,-1.906743,4.547889,-4.035957,-0.064018,0.047807,0.000000,-0.142232,-0.020141,-0.000000
4.640000,1.907057,1.121662,-1.495609,0.558946,1.276563,-0.016696,-0.462138,-0.636063,0.111518,0.187451,-1.326839,0.183941,-1.996486,4.477942,-4.081749,-0.065416,0.047615,0.000000,-0.137364,-0.018343,-0.000000
4.650000,1.912623,1.134395,-1.495770,0.554333,1.270137,-0.015572,-0.460365,-0.649108,0.113153,0.167078,-1.282436,0.142956,-2.075555,4.401012,-4.112754,-0.066765,0.047440,0.000000,-0.132550,-0.016456,-0.000000
4.660000,1.918144,1.147064,-1.495920,0.549738,1.263582,-0.014434,-0.458827,-0.661688,0.114376,0.143443,-1.236478,0.101738,-2.071622,4.252005,-4.128952,-0.068064,0.047288,0.000000,-0.127556,-0.014233,0.000000
4.670000,1.923618,1.159666,-1.496059,0.545157,1.256904,-0.013286,-0.457496,-0.673843,0.115187,0.122823,-1.194744,0.060429,-2.049473,4.093394,-4.130204,-0.069317,0.047155,0.000000,-0.122979,-0.012318,0.000000
4.680000,1.929047,1.172202,-1.496186,0.540588,1.250106,-0.012132,-0.456369,-0.685589,0.115585,0.102514,-1.154635,0.019184,-2.009293,3.927548,-4.116428,-0.070525,0.047041,0.000000,-0.118554,-0.010432,-0.000000
4.690000,1.934430,1.184668,-1.496302,0.536029,1.243193,-0.010975,-0.455444,-0.696941,0.115571,0.082696,-1.116210,-0.021849,-1.951267,3.756838,-4.087539,-0.071689,0.046945,0.000000,-0.114290,-0.008595,0.000000
4.700000,1.939767,1.197065,-1.496406,0.531478,1.236168,-0.009822,-0.454713,-0.707918,0.115149,0.063547,-1.079506,-0.062517,-1.875579,3.583631,-4.043456,-0.072811,0.046868,0.000000,-0.110193,-0.006824,0.000000
4.710000,1.945059,1.209391,-1.496498,0.526935,1.229036,-0.008674,-0.454197,-0.718535,0.114321,0.042771,-1.044333,-0.102849,-1.719976,3.405132,-3.979492,-0.073893,0.046811,0.000000,-0.106243,-0.004884,0.000000
4.720000,1.950306,1.221646,-1.496579,0.522395,1.221799,-0.007536,-0.453852,-0.728811,0.113095,0.026393,-1.011163,-0.142263,-1.554725,3.229508,-3.900731,-0.074936,0.046770,0.000000,-0.102496,-0.003391,0.000000
4.730000,1.955507,1.233827,-1.496649,0.517857,1.214461,-0.006413,-0.453663,-0.738764,0.111479,0.011682,-0.979723,-0.180816,-1.387657,3.059760,-3.807655,-0.075943,0.046742,0.000000,-0.098924,-0.002066,0.000000
4.740000,1.960663,1.245934,-1.496707,0.513321,1.207025,-0.005308,-0.453613,-0.748411,0.109482,-0.001381,-0.949939,-0.218370,-1.226601,2.898890,-3.700744,-0.076915,0.046728,0.000000,-0.095521,-0.000906,0.000000
4.750000,1.965774,1.257967,-1.496755,0.508784,1.199493,-0.004225,-0.453686,-0.757768,0.107115,-0.012896,-0.921706,-0.254787,-1.079388,2.749899,-3.580478,-0.077854,0.046724,0.000000,-0.092279,0.000101,0.000000
4.760000,1.970839,1.269924,-1.496792,0.504245,1.191871,-0.003167,-0.453816,-0.766870,0.104389,-0.018362,-0.896736,-0.290072,-1.072027,2.662375,-3.443922,-0.078764,0.046724,0.000000,-0.089375,0.000492,0.000000
4.770000,1.975859,1.281804,-1.496819,0.499706,1.184158,-0.002138,-0.454053,-0.775705,0.101318,-0.029111,-0.870498,-0.323778,-1.079698,2.587029,-3.295392,-0.079642,0.046734,0.000000,-0.086347,0.001431,-0.000000
4.780000,1.980833,1.293607,-1.496835,0.495164,1.176357,-0.001142,-0.454398,-0.784282,0.097918,-0.039984,-0.844963,-0.355943,-1.095759,2.521159,-3.135787,-0.080491,0.046753,0.000000,-0.083398,0.002389,-0.000000
4.790000,1.985762,1.305331,-1.496842,0.490618,1.168473,-0.000181,-0.454853,-0.792607,0.094205,-0.051032,-0.820052,-0.386460,-1.113570,2.462062,-2.966009,-0.081310,0.046782,0.000000,-0.080523,0.003372,0.000000
4.800000,1.990645,1.316976,-1.496839,0.486067,1.160506,0.000741,-0.455420,-0.800685,0.090195,-0.062239,-0.795709,-0.415232,-1.126489,2.407034,-2.786955,-0.082101,0.046821,0.000000,-0.077717,0.004377,0.000000
4.810000,1.995483,1.328541,-1.496827,0.481510,1.152459,0.001622,-0.456127,-0.808508,0.085907,-0.076136,-0.770535,-0.442097,-1.061872,2.318730,-2.601393,-0.082863,0.046873,0.000000,-0.074838,0.005665,-0.000000
4.820000,2.000275,1.340025,-1.496806,0.476945,1.144336,0.002459,-0.456940,-0.816099,0.081359,-0.086389,-0.747778,-0.467151,-0.987164,2.233332,-2.408126,-0.083599,0.046934,0.000000,-0.072222,0.006587,0.000000
4.830000,2.005022,1.351427,-1.496778,0.472371,1.136138,0.003249,-0.457852,-0.823466,0.076571,-0.095851,-0.725853,-0.490236,-0.903806,2.152380,-2.207826,-0.084308,0.047004,0.000000,-0.069707,0.007435,0.000000
4.840000,2.009723,1.362747,-1.496742,0.467787,1.127868,0.003989,-0.458854,-0.830618,0.071561,-0.104441,-0.704710,-0.511286,-0.813239,2.077413,-2.001163,-0.084993,0.047083,0.000000,-0.067289,0.008203,-0.000000
4.850000,2.014378,1.373984,-1.496698,0.463193,1.119527,0.004679,-0.459938,-0.837563,0.066352,-0.112096,-0.684280,-0.530240,-0.716904,2.009971,-1.788808,-0.085654,0.047169,0.000000,-0.064962,0.008883,0.000000
4.860000,2.018987,1.385138,-1.496648,0.458588,1.111117,0.005316,-0.461096,-0.844313,0.060963,-0.119045,-0.665106,-0.547114,-0.609176,1.967397,-1.569692,-0.086293,0.047261,0.000000,-0.062783,0.009500,-0.000000
4.870000,2.023550,1.396207,-1.496592,0.453971,1.102641,0.005898,-0.462315,-0.850866,0.055417,-0.124588,-0.645609,-0.561698,-0.499428,1.933491,-1.346440,-0.086910,0.047359,0.000000,-0.060592,0.009983,0.000000
4.880000,2.028066,1.407190,-1.496530,0.449342,1.094101,0.006424,-0.463584,-0.857226,0.049737,-0.129034,-0.626409,-0.574032,-0.389967,1.907857,-1.119934,-0.087505,0.047461,0.000000,-0.058454,0.010364,0.000000
4.890000,2.032536,1.418088,-1.496464,0.444700,1.085497,0.006892,-0.464892,-0.863395,0.043944,-0.132396,-0.607425,-0.584089,-0.283098,1.890099,-0.891059,-0.088079,0.047567,0.000000,-0.056361,0.010644,-0.000000
4.900000,2.036960,1.428900,-1.496393,0.440044,1.076833,0.007302,-0.466228,-0.869375,0.038062,-0.134712,-0.588582,-0.591848,-0.181127,1.879822,-0.660698,-0.088633,0.047675,0.000000,-0.054306,0.010829,-0.000000
4.910000,2.041337,1.439625,-1.496318,0.435375,1.068110,0.007653,-0.467569,-0.875166,0.032115,-0.134791,-0.569721,-0.597289,-0.117991,1.874511,-0.430024,-0.089165,0.047783,0.000000,-0.052274,0.010796,0.000000
4.920000,2.045667,1.450262,-1.496240,0.430692,1.059331,0.007944,-0.468922,-0.880769,0.026124,-0.135679,-0.550974,-0.600437,-0.060494,1.876148,-0.199598,-0.089678,0.047891,0.000000,-0.050278,0.010857,0.000000
4.930000,2.049951,1.460811,-1.496159,0.425996,1.050496,0.008176,-0.470281,-0.886185,0.020114,-0.136014,-0.532176,-0.601285,-0.007069,1.884597,0.029734,-0.090171,0.048001,0.000000,-0.048302,0.010873,-0.000000
4.940000,2.054187,1.471272,-1.496077,0.421286,1.041608,0.008347,-0.471641,-0.891413,0.014106,-0.135829,-0.513260,-0.599849,0.043850,1.899722,0.257121,-0.090644,0.048110,0.000000,-0.046338,0.010848,0.000000
4.950000,2.058377,1.481643,-1.495993,0.416563,1.032668,0.008458,-0.472996,-0.896450,0.008124,-0.135140,-0.494160,-0.596152,0.093830,1.921387,0.481717,-0.091098,0.048218,0.000000,-0.044382,0.010782,0.000000
4.960000,2.062519,1.491925,-1.495908,0.411827,1.023679,0.008509,-0.474349,-0.901296,0.002191,-0.134601,-0.474866,-0.590177,0.160876,1.950859,0.701426,-0.091532,0.048327,0.000000,-0.042432,0.010743,-0.000000
4.970000,2.066613,1.502117,-1.495823,0.407077,1.014643,0.008502,-0.475686,-0.905946,-0.003672,-0.132656,-0.455185,-0.582082,0.228102,1.986426,0.916798,-0.091946,0.048434,0.000000,-0.040468,0.010573,0.000000
4.980000,2.070660,1.512218,-1.495738,0.402313,1.005561,0.008436,-0.477000,-0.910398,-0.009443,-0.130040,-0.435118,-0.571858,0.295063,2.027781,1.127138,-0.092341,0.048539,0.000000,-0.038490,0.010345,0.000000
4.990000,2.074659,1.522228,-1.495654,0.397537,0.996436,0.008313,-0.478284,-0.914647,-0.015102,-0.126757,-0.414611,-0.559558,0.361313,2.074614,1.331749,-0.092716,0.048641,0.000000,-0.036492,0.010062,-0.000000
5.000000,2.078611,1.532146,-1.495572,0.392748,0.987269,0.008135,-0.479533,-0.918689,-0.020628,-0.122817,-0.393609,-0.545244,0.426405,2.126619,1.529935,-0.093071,0.048741,0.000000,-0.034470,0.009722,-0.000000
5.010000,2.082514,1.541973,-1.495491,0.387946,0.978062,0.007901,-0.480737,-0.922518,-0.026000,-0.118139,-0.372088,-0.528925,0.487478,2.184150,1.719529,-0.093406,0.048836,0.000000,-0.032419,0.009319,0.000000
5.020000,2.086370,1.551707,-1.495414,0.383133,0.968819,0.007615,-0.481893,-0.926128,-0.031200,-0.112966,-0.349941,-0.510814,0.546796,2.246154,1.901487,-0.093719,0.048928,0.000000,-0.030328,0.008877,-0.000000
5.030000,2.090177,1.561349,-1.495339,0.378308,0.959541,0.007278,-0.482995,-0.929514,-0.036210,-0.107209,-0.327152,-0.490923,0.604209,2.312243,2.075292,-0.094012,0.049015,0.000000,-0.028195,0.008385,0.000000
5.040000,2.093936,1.570898,-1.495268,0.373473,0.950230,0.006892,-0.484036,-0.932669,-0.041013,-0.100888,-0.303683,-0.469337,0.659567,2.382026,2.240429,-0.094283,0.049096,0.000000,-0.026016,0.007846,0.000000
5.050000,2.097646,1.580354,-1.495202,0.368628,0.940888,0.006458,-0.485011,-0.935586,-0.045592,-0.094025,-0.279500,-0.446145,0.712720,2.455115,2.396382,-0.094532,0.049172,0.000000,-0.023785,0.007262,0.000000
5.060000,2.101308,1.589716,-1.495139,0.363773,0.931519,0.005981,-0.485914,-0.938257,-0.049930,-0.086600,-0.254570,-0.421371,0.762453,2.531099,2.540853,-0.094759,0.049242,0.000000,-0.021500,0.006631,-0.000000
5.070000,2.104922,1.598984,-1.495082,0.358910,0.922124,0.005461,-0.486741,-0.940674,-0.054014,-0.078736,-0.228869,-0.395281,0.809809,2.609611,2.675327,-0.094962,0.049305,0.000000,-0.019155,0.005963,0.000000
5.080000,2.108486,1.608158,-1.495030,0.354039,0.912706,0.004901,-0.487487,-0.942831,-0.057831,-0.070412,-0.202371,-0.367899,0.854769,2.690267,2.799505,-0.095141,0.049362,0.000000,-0.016748,0.005257,-0.000000
5.090000,2.112002,1.617238,-1.494984,0.349160,0.903268,0.004305,-0.488148,-0.944719,-0.061368,-0.061649,-0.175058,-0.339327,0.897311,2.772678,2.913091,-0.095297,0.049411,0.000000,-0.014275,0.004514,-0.000000
5.100000,2.115470,1.626224,-1.494944,0.344276,0.893813,0.003675,-0.488719,-0.946330,-0.064614,-0.052474,-0.146913,-0.309673,0.937415,2.856459,3.015787,-0.095427,0.049452,0.000000,-0.011733,0.003736,0.000000
5.110000,2.118888,1.635114,-1.494911,0.339386,0.884342,0.003014,-0.489196,-0.947654,-0.067558,-0.042897,-0.117915,-0.278976,0.974764,2.940965,3.105461,-0.095531,0.049486,0.000000,-0.009119,0.002924,0.000000
5.120000,2.122257,1.643910,-1.494884,0.334492,0.874860,0.002325,-0.489576,-0.948685,-0.070191,-0.032973,-0.088080,-0.247519,1.009671,3.026099,3.183874,-0.095609,0.049511,0.000000,-0.006432,0.002081,0.000000
5.130000,2.125578,1.652612,-1.494864,0.329595,0.865370,0.001611,-0.489854,-0.949413,-0.072506,-0.022712,-0.057392,-0.215336,1.042151,3.111504,3.250953,-0.095659,0.049527,0.000000,-0.003670,0.001210,0.000000
5.140000,2.128849,1.661218,-1.494852,0.324696,0.855873,0.000876,-0.490029,-0.949830,-0.074496,-0.012138,-0.025850,-0.182538,1.072222,3.196826,3.306624,-0.095682,0.049535,0.000000,-0.000831,0.000310,0.000000
5.150000,2.132072,1.669729,-1.494847,0.319795,0.846374,0.000122,-0.490096,-0.949927,-0.076155,-0.001276,0.006543,-0.149242,1.099898,3.281708,3.350816,-0.095676,0.049533,0.000000,0.002088,-0.000615,-0.000000
5.160000,2.135245,1.678145,-1.494850,0.314894,0.836876,-0.000646,-0.490053,-0.949696,-0.077478,0.009859,0.039798,-0.115493,1.125013,3.365366,3.381733,-0.095640,0.049522,0.000000,0.005086,-0.001565,0.000000
5.170000,2.138370,1.686466,-1.494860,0.309994,0.827381,-0.001426,-0.489898,-0.949129,-0.078464,0.021225,0.073866,-0.081568,1.147789,3.447927,3.401235,-0.095574,0.049502,0.000000,0.008164,-0.002537,-0.000000
5.180000,2.141445,1.694693,-1.494878,0.305097,0.817894,-0.002214,-0.489628,-0.948216,-0.079109,0.032807,0.108752,-0.047505,1.168263,3.529088,3.409459,-0.095476,0.049471,0.000000,0.011323,-0.003531,0.000000
5.190000,2.144472,1.702824,-1.494904,0.300202,0.808418,-0.003007,-0.489241,-0.946951,-0.079414,0.044583,0.144442,-0.013416,1.186475,3.608546,3.406543,-0.095347,0.049431,0.000000,0.014563,-0.004543,0.000000
5.200000,2.147449,1.710861,-1.494938,0.295312,0.798957,-0.003802,-0.488736,-0.945325,-0.079378,0.056529,0.180916,0.020589,1.202461,3.686000,3.392625,-0.095185,0.049380,0.000000,0.017884,-0.005574,-0.000000
5.210000,2.150378,1.718804,-1.494980,0.290428,0.789513,-0.004594,-0.488110,-0.943330,-0.079002,0.068628,0.218172,0.054458,1.216173,3.760687,3.366373,-0.094989,0.049319,0.000000,0.021286,-0.006622,0.000000
5.220000,2.153258,1.726652,-1.495030,0.285550,0.780091,-0.005381,-0.487363,-0.940959,-0.078290,0.080850,0.256142,0.087947,1.227747,3.832820,3.329573,-0.094759,0.049247,0.000000,0.024767,-0.007685,-0.000000
5.230000,2.156089,1.734406,-1.495088,0.280681,0.770695,-0.006159,-0.486493,-0.938205,-0.077245,0.093176,0.294819,0.121016,1.237234,3.902153,3.282544,-0.094493,0.049164,0.000000,0.028327,-0.008761,-0.000000
5.240000,2.158871,1.742066,-1.495153,0.275821,0.761328,-0.006924,-0.485499,-0.935060,-0.075871,0.105588,0.334175,0.153564,1.244682,3.968438,3.225602,-0.094192,0.049071,0.000000,0.031964,-0.009850,-0.000000
5.250000,2.161605,1.749632,-1.495226,0.270971,0.751995,-0.007675,-0.484381,-0.931519,-0.074175,0.118063,0.374177,0.185496,1.250140,4.031429,3.159064,-0.093854,0.048967,0.000000,0.035677,-0.010950,0.000000
5.260000,2.164291,1.757106,-1.495307,0.266134,0.742699,-0.008407,-0.483138,-0.927575,-0.072163,0.130584,0.414806,0.216759,1.253663,4.090525,3.082137,-0.093478,0.048851,0.000000,0.039466,-0.012060,0.000000
5.270000,2.166928,1.764486,-1.495394,0.261309,0.733445,-0.009117,-0.481769,-0.923221,-0.069843,0.143130,0.455991,0.247159,1.255294,4.145877,2.996385,-0.093064,0.048724,0.000000,0.043326,-0.013178,0.000000
5.280000,2.169517,1.771775,-1.495489,0.256499,0.724236,-0.009803,-0.480275,-0.918453,-0.067223,0.155683,0.497710,0.276659,1.255082,4.197283,2.902263,-0.092612,0.048586,0.000000,0.047256,-0.014304,0.000000
5.290000,2.172058,1.778971,-1.495590,0.251704,0.715077,-0.010461,-0.478655,-0.913265,-0.064313,0.168226,0.539923,0.305177,1.253076,4.244540,2.800224,-0.092119,0.048437,0.000000,0.051253,-0.015436,0.000000
5.300000,2.174551,1.786076,-1.495698,0.246926,0.705972,-0.011088,-0.476911,-0.907653,-0.061123,0.180739,0.582586,0.332638,1.249325,4.287445,2.690721,-0.091586,0.048276,0.000000,0.055315,-0.016573,0.000000
5.310000,2.176997,1.793091,-1.495812,0.242166,0.696926,-0.011682,-0.475041,-0.901612,-0.057664,0.193203,0.625664,0.358996,1.243953,4.325611,2.573508,-0.091013,0.048104,0.000000,0.059439,-0.017713,0.000000
5.320000,2.179395,1.800015,-1.495932,0.237426,0.687942,-0.012240,-0.473047,-0.895139,-0.053947,0.205609,0.669091,0.384118,1.236923,4.359041,2.449824,-0.090397,0.047920,0.000000,0.063619,-0.018856,0.000000
5.330000,2.181745,1.806850,-1.496057,0.232706,0.679024,-0.012760,-0.470929,-0.888229,-0.049986,0.217937,0.712828,0.407973,1.228275,4.387555,2.320210,-0.089740,0.047725,0.000000,0.067854,-0.020000,-0.000000
5.340000,2.184049,1.813596,-1.496187,0.228007,0.670178,-0.013239,-0.468688,-0.880881,-0.045792,0.230169,0.756825,0.430504,1.218048,4.410972,2.185205,-0.089040,0.047519,0.000000,0.072139,-0.021144,0.000000
5.350000,2.186305,1.820254,-1.496321,0.223332,0.661408,-0.013675,-0.466326,-0.873092,-0.041380,0.242292,0.801030,0.451661,1.206282,4.429112,2.045348,-0.088297,0.047301,0.000000,0.076469,-0.022287,0.000000
5.360000,2.188515,1.826824,-1.496460,0.218681,0.652718,-0.014066,-0.463843,-0.864860,-0.036764,0.254285,0.845389,0.471408,1.193141,4.441810,1.900910,-0.087511,0.047071,0.000000,0.080840,-0.023427,0.000000
5.370000,2.190679,1.833308,-1.496603,0.214056,0.644113,-0.014410,-0.461241,-0.856184,-0.031957,0.266145,0.889847,0.489679,1.178525,4.448868,1.752732,-0.086680,0.046830,0.000000,0.085247,-0.024563,0.000000
5.380000,2.192797,1.839707,-1.496748,0.209457,0.635596,-0.014705,-0.458521,-0.847063,-0.026975,0.277851,0.934347,0.506452,1.162455,4.450103,1.601388,-0.085806,0.046578,0.000000,0.089685,-0.025695,0.000000
5.390000,2.194868,1.846021,-1.496896,0.204886,0.627173,-0.014949,-0.455684,-0.837497,-0.021833,0.289389,0.978829,0.521698,1.144957,4.445334,1.447449,-0.084886,0.046315,0.000000,0.094147,-0.026820,0.000000
5.400000,2.196894,1.852251,-1.497047,0.200344,0.618847,-0.015141,-0.452733,-0.827487,-0.016546,0.300745,1.023233,0.535394,1.126053,4.434377,1.291488,-0.083922,0.046040,0.000000,0.098629,-0.027937,0.000000
5.410000,2.198875,1.858398,-1.497199,0.195832,0.610624,-0.015280,-0.449670,-0.817033,-0.011130,0.311899,1.067488,0.547517,1.105919,4.417232,1.134223,-0.082914,0.045754,0.000000,0.103123,-0.029044,0.000000
5.420000,2.200811,1.864463,-1.497352,0.191351,0.602508,-0.015363,-0.446496,-0.806138,-0.005601,0.322852,1.111547,0.558069,1.084408,4.393512,0.976064,-0.081860,0.045457,0.000000,0.107624,-0.030142,-0.000000
5.430000,2.202702,1.870448,-1.497506,0.186902,0.594503,-0.015391,-0.443214,-0.794803,0.000026,0.333583,1.155336,0.567037,1.061527,4.363014,0.817564,-0.080761,0.045149,0.000000,0.112124,-0.031227,-0.000000
5.440000,2.204549,1.876354,-1.497660,0.182487,0.586614,-0.015363,-0.439825,-0.783032,0.005734,0.344078,1.198784,0.574421,1.037281,4.325531,0.659279,-0.079618,0.044831,0.000000,0.116616,-0.032299,0.000000
5.450000,2.206352,1.882181,-1.497813,0.178106,0.578844,-0.015276,-0.436333,-0.770829,0.011509,0.354324,1.241822,0.580225,1.011674,4.280860,0.501763,-0.078429,0.044501,0.000000,0.121092,-0.033355,0.000000
5.460000,2.208112,1.887931,-1.497965,0.173760,0.571199,-0.015132,-0.432740,-0.758197,0.017333,0.364301,1.284366,0.584440,0.984861,4.229079,0.346081,-0.077196,0.044161,0.000000,0.125543,-0.034394,-0.000000
5.470000,2.209828,1.893605,-1.498116,0.169451,0.563681,-0.014930,-0.429048,-0.745143,0.023193,0.374010,1.326366,0.587130,0.956681,4.169666,0.192215,-0.075918,0.043811,0.000000,0.129962,-0.035415,0.000000
5.480000,2.211501,1.899205,-1.498264,0.165180,0.556297,-0.014668,-0.425260,-0.731672,0.029071,0.383430,1.367733,0.588292,0.927120,4.102380,0.040656,-0.074597,0.043451,0.000000,0.134341,-0.036416,0.000000
5.490000,2.213131,1.904732,-1.498409,0.160946,0.549049,-0.014348,-0.421380,-0.717791,0.034953,0.392548,1.408386,0.587953,0.896166,4.026983,-0.108102,-0.073232,0.043081,0.000000,0.138669,-0.037395,-0.000000
5.500000,2.214720,1.910187,-1.498550,0.156752,0.541943,-0.013969,-0.417411,-0.703507,0.040825,0.401349,1.448244,0.586141,0.863806,3.943235,-0.253568,-0.071824,0.042701,0.000000,0.142936,-0.038350,0.000000
5.510000,2.216267,1.915571,-1.498688,0.152599,0.534981,-0.013532,-0.413354,-0.688829,0.046671,0.409814,1.487210,0.582863,0.830150,3.851197,-0.394457,-0.070373,0.042312,0.000000,0.147133,-0.039279,0.000000
5.520000,2.217772,1.920887,-1.498821,0.148486,0.528167,-0.013036,-0.409215,-0.673766,0.052478,0.417942,1.525225,0.578231,0.795047,3.750293,-0.531167,-0.068881,0.041914,0.000000,0.151251,-0.040181,0.000000
5.530000,2.219236,1.926135,-1.498949,0.144414,0.521507,-0.012482,-0.404997,-0.658328,0.058231,0.425710,1.562186,0.572254,0.758469,3.640246,-0.663302,-0.067348,0.041507,0.000000,0.155277,-0.041053,0.000000
5.540000,2.220660,1.931317,-1.499070,0.140386,0.515002,-0.011871,-0.400702,-0.642526,0.063918,0.433106,1.597999,0.564981,0.720388,3.520780,-0.790467,-0.065776,0.041091,0.000000,0.159202,-0.041894,0.000000
5.550000,2.222044,1.936436,-1.499186,0.136401,0.508657,-0.011204,-0.396336,-0.626372,0.069527,0.440113,1.632569,0.556463,0.680776,3.391618,-0.912268,-0.064165,0.040667,0.000000,0.163013,-0.042701,0.000000
5.560000,2.223389,1.941491,-1.499294,0.132459,0.502476,-0.010481,-0.391902,-0.609879,0.075043,0.446713,1.665788,0.546717,0.639683,3.252725,-1.027342,-0.062516,0.040235,0.000000,0.166697,-0.043471,0.000000
5.570000,2.224694,1.946486,-1.499395,0.128563,0.496461,-0.009704,-0.387403,-0.593061,0.080457,0.452898,1.697579,0.535893,0.596994,3.103554,-1.136379,-0.060831,0.039796,0.000000,0.170245,-0.044204,0.000000
5.580000,2.225960,1.951421,-1.499488,0.124712,0.490615,-0.008872,-0.382845,-0.575933,0.085758,0.458648,1.727824,0.524010,0.552670,2.943801,-1.239103,-0.059112,0.039350,0.000000,0.173643,-0.044896,0.000000
5.590000,2.227188,1.956299,-1.499573,0.120906,0.484943,-0.007989,-0.378232,-0.558510,0.090934,0.463946,1.756418,0.511133,0.506675,2.773158,-1.335236,-0.057359,0.038897,0.000000,0.176877,-0.045545,0.000000
5.600000,2.228378,1.961120,-1.499648,0.117147,0.479446,-0.007054,-0.373568,-0.540810,0.095977,0.468775,1.783250,0.497328,0.458970,2.591321,-1.424503,-0.055575,0.038438,0.000000,0.179935,-0.046149,0.000000
5.610000,2.229531,1.965888,-1.499713,0.113435,0.474128,-0.006070,-0.368858,-0.522851,0.100877,0.473119,1.808201,0.482626,0.409532,2.398121,-1.505604,-0.053761,0.037973,0.000000,0.182803,-0.046706,-0.000000
5.620000,2.230647,1.970604,-1.499769,0.109770,0.468990,-0.005037,-0.364107,-0.504653,0.105627,0.476960,1.831167,0.467195,0.358308,2.193098,-1.579411,-0.051919,0.037502,0.000000,0.185468,-0.047212,-0.000000
5.630000,2.231727,1.975269,-1.499814,0.106153,0.464035,-0.003958,-0.359320,-0.486235,0.110219,0.480279,1.852022,0.451063,0.305259,1.975929,-1.645770,-0.050052,0.037027,0.000000,0.187914,-0.047667,0.000000
5.640000,2.232770,1.979885,-1.499848,0.102584,0.459266,-0.002833,-0.354503,-0.467620,0.114646,0.483059,1.870644,0.434305,0.250347,1.746293,-1.704530,-0.048162,0.036548,0.000000,0.190128,-0.048066,-0.000000
5.650000,2.233778,1.984454,-1.499871,0.099063,0.454684,-0.001665,-0.349661,-0.448830,0.118903,0.485280,1.886906,0.416998,0.193531,1.503866,-1.755540,-0.046251,0.036065,0.000000,0.192095,-0.048407,-0.000000
5.660000,2.234752,1.988979,-1.499881,0.095591,0.450290,-0.000456,-0.344800,-0.429890,0.122984,0.486926,1.900676,0.399183,0.134699,1.248372,-1.797694,-0.044321,0.035579,0.000000,0.193799,-0.048689,0.000000
5.670000,2.235690,1.993461,-1.499880,0.092167,0.446086,0.000794,-0.339925,-0.410825,0.126886,0.487970,1.911826,0.381028,0.073894,0.979436,-1.831911,-0.042375,0.035090,0.000000,0.195225,-0.048908,0.000000
5.680000,2.236595,1.997902,-1.499865,0.088792,0.442074,0.002081,-0.335042,-0.391663,0.130604,0.488397,1.920219,0.362571,0.011088,0.696732,-1.858156,-0.040417,0.034600,0.000000,0.196359,-0.049062,0.000000
5.690000,2.237466,2.002303,-1.499838,0.085466,0.438253,0.003405,-0.330159,-0.372431,0.134136,0.488185,1.925714,0.343892,-0.053751,0.399931,-1.876394,-0.038449,0.034109,0.000000,0.197183,-0.049148,0.000000
5.700000,2.238305,2.006667,-1.499797,0.082189,0.434625,0.004763,-0.325281,-0.353159,0.137481,0.487315,1.928169,0.325070,-0.120653,0.088706,-1.886592,-0.036475,0.033617,0.000000,0.197683,-0.049163,0.000000
5.710000,2.239110,2.010996,-1.499742,0.078960,0.431190,0.006154,-0.320415,-0.333878,0.140637,0.485773,1.927437,0.306156,-0.189843,-0.237227,-1.887934,-0.034497,0.033125,0.000000,0.197841,-0.049106,0.000000
5.720000,2.239884,2.015292,-1.499674,0.075781,0.427947,0.007575,-0.315568,-0.314621,0.143604,0.483520,1.923372,0.287303,-0.261131,-0.578247,-1.881261,-0.032519,0.032634,0.000000,0.197641,-0.048972,0.000000
5.730000,2.240626,2.019556,-1.499591,0.072649,0.424897,0.009026,-0.310747,-0.295422,0.146384,0.480543,1.915821,0.268557,-0.334525,-0.934686,-1.866633,-0.030545,0.032145,0.000000,0.197067,-0.048760,0.000000
