time,x,y,z,vx,vy,vz,ax,ay,az,jx,jy,jz,sx,sy,sz
0.000000,-2.212397,-2.381150,1.491608,-0.016435,0.001931,-0.006904,0.271959,0.158302,-0.002156,-6.947162,-3.854472,0.022028,205.092896,87.267206,8.992762
0.010000,-2.212549,-2.381124,1.491539,-0.014030,0.003336,-0.006923,0.212374,0.123965,-0.001498,-5.006127,-3.028164,0.108290,183.377217,78.106232,8.259318
0.020000,-2.212679,-2.381085,1.491469,-0.012127,0.004437,-0.006931,0.171139,0.097445,-0.000015,-3.274461,-2.290152,0.187209,163.208595,69.603635,7.524354
0.030000,-2.212793,-2.381036,1.491400,-0.010553,0.005308,-0.006921,0.146237,0.077890,0.002221,-1.737006,-1.633985,0.258779,144.524594,61.732983,6.789703
0.040000,-2.212891,-2.380979,1.491331,-0.009154,0.006015,-0.006885,0.135800,0.064513,0.005136,-0.379229,-1.053474,0.323010,127.262781,54.467843,6.057194
0.050000,-2.212976,-2.380916,1.491263,-0.007794,0.006616,-0.006816,0.138100,0.056588,0.008657,0.812782,-0.542698,0.379936,111.360721,47.781783,5.328657
0.060000,-2.213047,-2.380847,1.491195,-0.006355,0.007163,-0.006710,0.151547,0.053445,0.012711,1.852310,-0.095997,0.429603,96.755980,41.648370,4.605922
0.070000,-2.213102,-2.380772,1.491129,-0.004731,0.007699,-0.006560,0.174680,0.054472,0.017225,2.752018,0.292024,0.472080,83.386124,36.041171,3.890821
0.080000,-2.213140,-2.380693,1.491064,-0.002833,0.008264,-0.006364,0.206162,0.059107,0.022129,3.523941,0.626493,0.507451,71.188718,30.933754,3.185182
0.090000,-2.213158,-2.380607,1.491001,-0.000584,0.008892,-0.006117,0.244771,0.066840,0.027351,4.179492,0.912277,0.535821,60.101328,26.299687,2.490836
0.100000,-2.213151,-2.380515,1.490942,0.002082,0.009610,-0.005816,0.289400,0.077206,0.032822,4.729459,1.153976,0.557311,50.061519,22.112537,1.809614
0.110000,-2.213114,-2.380414,1.490885,0.005221,0.010443,-0.005460,0.339043,0.089787,0.038475,5.184006,1.355929,0.572063,41.006858,18.345871,1.143345
0.120000,-2.213044,-2.380305,1.490833,0.008877,0.011412,-0.005046,0.392794,0.104206,0.044241,5.552672,1.522207,0.580234,32.874910,14.973258,0.493860
0.130000,-2.212935,-2.380186,1.490785,0.013088,0.012532,-0.004575,0.449840,0.120125,0.050058,5.844372,1.656619,0.582002,25.603241,11.968264,-0.137011
0.140000,-2.212781,-2.380054,1.490741,0.017882,0.013818,-0.004045,0.509452,0.137244,0.055861,6.067396,1.762710,0.577562,19.129416,9.304457,-0.747438
0.150000,-2.212575,-2.379909,1.490704,0.023283,0.015280,-0.003458,0.570984,0.155296,0.061589,6.229412,1.843758,0.567128,13.391002,6.955405,-1.335591
0.160000,-2.212313,-2.379748,1.490672,0.029306,0.016926,-0.002814,0.633861,0.174045,0.067184,6.337460,1.902779,0.550931,8.325563,4.894675,-1.899639
0.170000,-2.211987,-2.379570,1.490648,0.035963,0.018763,-0.002115,0.697575,0.193287,0.072589,6.397958,1.942524,0.529221,3.870666,3.095834,-2.437753
0.180000,-2.211592,-2.379372,1.490630,0.043259,0.020793,-0.001363,0.761681,0.212840,0.077751,6.416700,1.965480,0.502268,-0.036124,1.532450,-2.948101
0.190000,-2.211120,-2.379153,1.490621,0.051197,0.023020,-0.000561,0.825787,0.232548,0.082618,6.398855,1.973870,0.470358,-3.457241,0.178091,-3.428855
0.200000,-2.210566,-2.378911,1.490619,0.059774,0.025444,0.000288,0.889551,0.252275,0.087143,6.348966,1.969651,0.433796,-6.455119,-0.993676,-3.878182
0.210000,-2.209922,-2.378644,1.490627,0.068982,0.028064,0.001181,0.952787,0.271950,0.091281,6.281452,1.958688,0.392976,-9.357322,-2.114636,-4.296056
0.220000,-2.209184,-2.378349,1.490643,0.078823,0.030881,0.002113,1.015089,0.291414,0.094989,6.174759,1.932537,0.348073,-11.928690,-3.092970,-4.678623
0.230000,-2.208344,-2.378025,1.490669,0.089280,0.033891,0.003079,1.076201,0.310570,0.098230,6.043881,1.897259,0.299529,-14.199193,-3.942208,-5.023832
0.240000,-2.207396,-2.377670,1.490705,0.100342,0.037091,0.004075,1.135896,0.329333,0.100969,5.891678,1.854078,0.247728,-16.198800,-4.675882,-5.329635
0.250000,-2.206335,-2.377283,1.490751,0.111993,0.040476,0.005097,1.193972,0.347629,0.103175,5.720708,1.804082,0.193074,-17.957480,-5.307526,-5.593979
0.260000,-2.205154,-2.376860,1.490807,0.124214,0.044041,0.006137,1.250308,0.365418,0.104818,5.538092,1.750335,0.135634,-19.627969,-5.904041,-5.805752
0.270000,-2.203849,-2.376401,1.490873,0.136991,0.047782,0.007191,1.304682,0.382617,0.105881,5.334283,1.688655,0.076703,-21.102437,-6.419054,-5.973075
0.280000,-2.202413,-2.375904,1.490951,0.150301,0.051692,0.008253,1.356947,0.399175,0.106347,5.116647,1.622203,0.016324,-22.395822,-6.859562,-6.095007
0.290000,-2.200841,-2.375367,1.491038,0.164122,0.055763,0.009316,1.406974,0.415048,0.106204,4.886920,1.551689,-0.045043,-23.523061,-7.232562,-6.170606
0.300000,-2.199129,-2.374788,1.491137,0.178432,0.059990,0.010375,1.454651,0.430198,0.105445,4.646690,1.477753,-0.106931,-24.499089,-7.545050,-6.198932
0.310000,-2.197271,-2.374167,1.491246,0.193206,0.064364,0.011423,1.499903,0.444605,0.104059,4.399667,1.402039,-0.169452,-25.396298,-7.831123,-6.164112
0.320000,-2.195263,-2.373501,1.491365,0.208421,0.068879,0.012454,1.542616,0.458230,0.102058,4.141756,1.322507,-0.230722,-26.165137,-8.067361,-6.081964
0.330000,-2.193101,-2.372789,1.491495,0.224050,0.073526,0.013462,1.582714,0.471048,0.099448,3.876766,1.240846,-0.290937,-26.813505,-8.257441,-5.953376
0.340000,-2.190781,-2.372030,1.491634,0.240066,0.078297,0.014441,1.620132,0.483041,0.096244,3.605861,1.157499,-0.349637,-27.349307,-8.405044,-5.779235
0.350000,-2.188299,-2.371222,1.491784,0.256444,0.083184,0.015385,1.654815,0.494194,0.092462,3.330129,1.072874,-0.406372,-27.780442,-8.513847,-5.560429
0.360000,-2.185651,-2.370366,1.491942,0.273153,0.088178,0.016289,1.686733,0.504501,0.088118,3.051644,0.987880,-0.461300,-28.141806,-8.601182,-5.282680
0.370000,-2.182835,-2.369458,1.492109,0.290168,0.093271,0.017146,1.715838,0.513949,0.083246,2.768805,0.901570,-0.512566,-28.411002,-8.655404,-4.963898
0.380000,-2.179847,-2.368500,1.492285,0.307460,0.098454,0.017952,1.742102,0.522532,0.077878,2.483716,0.814876,-0.560451,-28.592627,-8.678518,-4.606824
0.390000,-2.176685,-2.367489,1.492468,0.325001,0.103719,0.018702,1.765507,0.530246,0.072050,2.197229,0.728097,-0.604584,-28.691277,-8.672533,-4.214204
0.400000,-2.173346,-2.366425,1.492659,0.342761,0.109056,0.019392,1.786044,0.537094,0.065800,1.910151,0.641515,-0.644625,-28.711549,-8.639456,-3.788781
0.410000,-2.169829,-2.365308,1.492856,0.360712,0.114458,0.020017,1.803716,0.543081,0.059167,1.623717,0.555649,-0.680691,-28.669991,-8.587794,-3.322398
0.420000,-2.166131,-2.364136,1.493059,0.378826,0.119915,0.020574,1.818521,0.548209,0.052202,1.337521,0.470129,-0.711473,-28.557783,-8.512257,-2.830034
0.430000,-2.162252,-2.362909,1.493267,0.397073,0.125419,0.021060,1.830471,0.552486,0.044954,1.052787,0.385479,-0.737219,-28.378059,-8.414056,-2.315770
0.440000,-2.158189,-2.361627,1.493480,0.415426,0.130962,0.021472,1.839584,0.555922,0.037475,0.770174,0.301920,-0.757729,-28.133951,-8.294402,-1.783684
0.450000,-2.153943,-2.360290,1.493696,0.433855,0.136535,0.021809,1.845884,0.558529,0.029818,0.490312,0.219659,-0.772847,-27.828593,-8.154507,-1.237855
0.460000,-2.149512,-2.358897,1.493916,0.452334,0.142130,0.022068,1.849403,0.560322,0.022035,0.213957,0.138994,-0.782612,-27.469188,-7.998137,-0.678372
0.470000,-2.144896,-2.357447,1.494137,0.470834,0.147739,0.022249,1.850176,0.561315,0.014184,-0.058705,0.059871,-0.786575,-27.054299,-7.823635,-0.113793
0.480000,-2.140095,-2.355942,1.494360,0.489329,0.153354,0.022352,1.848244,0.561525,0.006322,-0.326953,-0.017421,-0.784886,-26.586560,-7.631897,0.451316
0.490000,-2.135110,-2.354380,1.494584,0.507790,0.158967,0.022376,1.843653,0.560973,-0.001495,-0.590269,-0.092713,-0.777563,-26.068607,-7.423822,1.012386
0.500000,-2.129940,-2.352763,1.494808,0.526193,0.164570,0.022322,1.836457,0.559678,-0.009210,-0.848166,-0.165846,-0.764667,-25.503072,-7.200308,1.564851
0.510000,-2.124586,-2.351089,1.495030,0.544511,0.170158,0.022192,1.826710,0.557664,-0.016768,-1.100171,-0.236651,-0.746165,-24.892835,-6.962735,2.100495
0.520000,-2.119050,-2.349360,1.495251,0.562719,0.175721,0.021988,1.814474,0.554953,-0.024116,-1.345871,-0.305034,-0.722552,-24.240255,-6.711460,2.618846
0.530000,-2.113332,-2.347575,1.495470,0.580792,0.181255,0.021711,1.799815,0.551572,-0.031202,-1.584844,-0.370838,-0.693859,-23.547937,-6.447321,3.115782
0.540000,-2.107435,-2.345735,1.495685,0.598707,0.186751,0.021365,1.782801,0.547546,-0.037977,-1.816706,-0.433940,-0.660322,-22.818485,-6.171157,3.587183
0.550000,-2.101359,-2.343840,1.495897,0.616441,0.192203,0.020953,1.763506,0.542902,-0.044393,-2.041098,-0.494224,-0.622215,-22.054505,-5.883807,4.028929
0.560000,-2.095106,-2.341891,1.496104,0.633970,0.197607,0.020478,1.742005,0.537671,-0.050403,-2.257716,-0.551593,-0.579447,-21.257919,-5.585815,4.426588
0.570000,-2.088680,-2.339888,1.496306,0.651274,0.202955,0.019946,1.718378,0.531881,-0.055970,-2.466190,-0.605922,-0.533345,-20.432096,-5.278350,4.787613
0.580000,-2.082082,-2.337832,1.496503,0.668331,0.208243,0.019360,1.692709,0.525563,-0.061058,-2.666270,-0.657132,-0.483827,-19.579724,-4.962288,5.109144
0.590000,-2.075314,-2.335723,1.496693,0.685121,0.213465,0.018726,1.665082,0.518749,-0.065636,-2.857705,-0.705142,-0.431303,-18.703490,-4.638502,5.388324
0.600000,-2.068380,-2.333563,1.496877,0.701626,0.218616,0.018049,1.635584,0.511471,-0.069676,-3.040269,-0.749879,-0.376211,-17.806082,-4.307867,5.622293
0.610000,-2.061283,-2.331351,1.497054,0.717827,0.223693,0.017335,1.604307,0.503762,-0.073147,-3.213744,-0.791284,-0.318434,-16.890707,-3.971120,5.793465
0.620000,-2.054025,-2.329089,1.497224,0.733707,0.228690,0.016588,1.571340,0.495656,-0.076040,-3.378007,-0.829290,-0.259848,-15.959471,-3.629292,5.915515
0.630000,-2.046610,-2.326778,1.497386,0.749249,0.233605,0.015816,1.536778,0.487188,-0.078341,-3.532889,-0.863856,-0.200291,-15.014996,-3.283272,5.987386
0.640000,-2.039041,-2.324417,1.497540,0.764437,0.238433,0.015023,1.500714,0.478391,-0.080044,-3.678272,-0.894945,-0.140271,-14.059907,-2.933954,6.008024
0.650000,-2.031322,-2.322009,1.497686,0.779258,0.243171,0.014217,1.463245,0.469301,-0.081147,-3.814061,-0.922527,-0.080305,-13.096829,-2.582229,5.976376
0.660000,-2.023457,-2.319554,1.497824,0.793698,0.247818,0.013402,1.424466,0.459952,-0.081645,-3.940078,-0.946562,-0.020279,-12.131231,-2.229549,5.875159
0.670000,-2.015450,-2.317053,1.497954,0.807743,0.252370,0.012586,1.384475,0.450381,-0.081556,-4.056548,-0.967091,0.037748,-11.162543,-1.876176,5.721533
0.680000,-2.007304,-2.314507,1.498076,0.821384,0.256825,0.011773,1.343368,0.440622,-0.080896,-4.163326,-0.984086,0.093980,-10.193041,-1.522934,5.516428
0.690000,-1.999023,-2.311917,1.498190,0.834607,0.261182,0.010970,1.301241,0.430711,-0.079684,-4.260414,-0.997553,0.147908,-9.224998,-1.170645,5.260778
0.700000,-1.990613,-2.309284,1.498295,0.847405,0.265439,0.010181,1.258192,0.420683,-0.077947,-4.347838,-1.007505,0.199030,-8.260692,-0.820133,4.955513
0.710000,-1.982077,-2.306609,1.498393,0.859768,0.269595,0.009412,1.214319,0.410573,-0.075708,-4.425445,-1.013910,0.247440,-7.307504,-0.473582,4.586801
0.720000,-1.973419,-2.303892,1.498484,0.871689,0.273650,0.008668,1.169715,0.400416,-0.073011,-4.493786,-1.016927,0.291272,-6.361977,-0.130286,4.172147
0.730000,-1.964644,-2.301136,1.498567,0.883161,0.277603,0.007953,1.124474,0.390246,-0.069898,-4.552716,-1.016529,0.330739,-5.425763,0.209098,3.714291
0.740000,-1.955757,-2.298341,1.498643,0.894177,0.281455,0.007271,1.078691,0.380097,-0.066413,-4.602338,-1.012760,0.365423,-4.500510,0.543914,3.215972
0.750000,-1.946762,-2.295507,1.498712,0.904733,0.285205,0.006626,1.032458,0.370002,-0.062606,-4.642768,-1.005668,0.394933,-3.587870,0.873506,2.679931
0.760000,-1.937664,-2.292637,1.498776,0.914825,0.288855,0.006020,0.985869,0.359995,-0.058528,-4.673896,-0.995236,0.419336,-2.695715,1.195357,2.098016
0.770000,-1.928467,-2.289730,1.498833,0.924449,0.292406,0.005456,0.939010,0.350108,-0.054240,-4.696455,-0.981699,0.437277,-1.818710,1.510898,1.485192
0.780000,-1.919177,-2.286789,1.498885,0.933604,0.295858,0.004936,0.891969,0.340372,-0.049803,-4.710324,-0.965040,0.448951,-0.957745,1.819703,0.845532
0.790000,-1.909797,-2.283814,1.498932,0.942288,0.299214,0.004460,0.844832,0.330817,-0.045282,-4.715667,-0.945329,0.454111,-0.113707,2.121343,0.183110
0.800000,-1.900333,-2.280805,1.498974,0.950501,0.302475,0.004030,0.797683,0.321475,-0.040743,-4.712657,-0.922639,0.452551,0.712514,2.415390,-0.498002
0.810000,-1.890789,-2.277764,1.499012,0.958242,0.305644,0.003645,0.750608,0.312375,-0.036252,-4.701257,-0.896976,0.444321,1.514424,2.699603,-1.199243
0.820000,-1.881169,-2.274692,1.499047,0.965513,0.308723,0.003305,0.703684,0.303545,-0.031880,-4.682182,-0.868593,0.428779,2.297429,2.975589,-1.910351
0.830000,-1.871480,-2.271590,1.499079,0.972317,0.311716,0.003007,0.656990,0.295012,-0.027700,-4.655372,-0.837492,0.406097,3.061324,3.243140,-2.626578
0.840000,-1.861725,-2.268458,1.499107,0.978654,0.314625,0.002750,0.610602,0.286804,-0.023782,-4.621020,-0.803759,0.376246,3.805909,3.502050,-3.343174
0.850000,-1.851908,-2.265298,1.499134,0.984530,0.317453,0.002530,0.564594,0.278945,-0.020199,-4.579319,-0.767481,0.339248,4.530981,3.752112,-4.055391
0.860000,-1.842035,-2.262110,1.499158,0.989948,0.320205,0.002344,0.519041,0.271463,-0.017021,-4.530337,-0.728700,0.295153,5.233084,3.991931,-4.758087
0.870000,-1.832111,-2.258894,1.499181,0.994912,0.322884,0.002188,0.474011,0.264379,-0.014319,-4.474577,-0.687620,0.244115,5.915669,4.222636,-5.446954
0.880000,-1.822139,-2.255652,1.499202,0.999430,0.325494,0.002056,0.429572,0.257718,-0.012162,-4.412088,-0.644278,0.186276,6.578932,4.444164,-6.117293
0.890000,-1.812124,-2.252384,1.499222,1.003506,0.328039,0.001943,0.385791,0.251501,-0.010616,-4.343062,-0.598767,0.121846,7.223071,4.656456,-6.764401
0.900000,-1.802070,-2.249092,1.499241,1.007148,0.330525,0.001842,0.342732,0.245750,-0.009746,-4.267689,-0.551180,0.051081,7.848282,4.859449,-7.383580
0.910000,-1.791982,-2.245774,1.499259,1.010363,0.332956,0.001746,0.300457,0.240484,-0.009617,-4.186161,-0.501601,-0.025954,8.454826,5.052878,-7.964137
0.920000,-1.781864,-2.242433,1.499276,1.013160,0.335337,0.001647,0.259028,0.235724,-0.010284,-4.098658,-0.450144,-0.108347,9.042828,5.236912,-8.508096
0.930000,-1.771720,-2.239067,1.499292,1.015547,0.337672,0.001537,0.218504,0.231487,-0.011801,-4.005366,-0.396894,-0.195980,9.612475,5.411516,-9.011490
0.940000,-1.761555,-2.235679,1.499307,1.017533,0.339968,0.001408,0.178940,0.227792,-0.014219,-3.906469,-0.341945,-0.288428,10.163958,5.576655,-9.470352
0.950000,-1.751371,-2.232268,1.499320,1.019129,0.342230,0.001250,0.140392,0.224654,-0.017584,-3.802147,-0.285393,-0.385226,10.697464,5.732292,-9.880716
0.960000,-1.741173,-2.228835,1.499331,1.020345,0.344463,0.001053,0.102913,0.222088,-0.021941,-3.692708,-0.227362,-0.486292,11.216448,5.879167,-10.227905
0.970000,-1.730965,-2.225379,1.499341,1.021191,0.346674,0.000807,0.066555,0.220111,-0.027321,-3.578023,-0.167876,-0.590078,11.717433,6.016374,-10.519973
0.980000,-1.720751,-2.221901,1.499347,1.021680,0.348867,0.000503,0.031369,0.218735,-0.033752,-3.458420,-0.107067,-0.696499,12.200207,6.143783,-10.754264
0.990000,-1.710533,-2.218402,1.499351,1.021823,0.351051,0.000129,-0.002597,0.217974,-0.041257,-3.334081,-0.045034,-0.804962,12.664561,6.261263,-10.928122
1.000000,-1.700315,-2.214880,1.499350,1.021632,0.353229,-0.000326,-0.035298,0.217838,-0.049856,-3.205191,0.018124,-0.914851,13.110282,6.368684,-11.038892
1.010000,-1.690101,-2.211337,1.499344,1.021121,0.355409,-0.000872,-0.066689,0.218339,-0.059563,-3.072146,0.082252,-1.026084,13.542421,6.467284,-11.069703
1.020000,-1.679894,-2.207772,1.499332,1.020303,0.357598,-0.001521,-0.096726,0.219486,-0.070377,-2.934643,0.147374,-1.136657,13.954860,6.555396,-11.033855
1.030000,-1.669696,-2.204185,1.499313,1.019191,0.359801,-0.002283,-0.125368,0.221289,-0.082294,-2.793117,0.213324,-1.246535,14.346745,6.632721,-10.930433
1.040000,-1.659511,-2.200576,1.499286,1.017800,0.362026,-0.003170,-0.152576,0.223755,-0.095303,-2.647779,0.279991,-1.355038,14.717222,6.698961,-10.758522
1.050000,-1.649341,-2.196945,1.499249,1.016145,0.364279,-0.004193,-0.178312,0.226891,-0.109388,-2.498847,0.347265,-1.461475,15.065434,6.753818,-10.517207
1.060000,-1.639189,-2.193290,1.499201,1.014239,0.366566,-0.005361,-0.202544,0.230702,-0.124530,-2.346749,0.414979,-1.565788,15.395600,6.798245,-10.189389
1.070000,-1.629057,-2.189613,1.499141,1.012099,0.368895,-0.006686,-0.225236,0.235192,-0.140692,-2.191244,0.483133,-1.665754,15.701170,6.830539,-9.792319
1.080000,-1.618948,-2.185912,1.499067,1.009740,0.371272,-0.008178,-0.246359,0.240365,-0.157831,-2.032812,0.551548,-1.761407,15.980668,6.850249,-9.327062
1.090000,-1.608863,-2.182187,1.498977,1.007177,0.373705,-0.009846,-0.265884,0.246223,-0.175903,-1.871722,0.620095,-1.852072,16.232616,6.856921,-8.794687
1.100000,-1.598805,-2.178438,1.498870,1.004427,0.376199,-0.011699,-0.283786,0.252767,-0.194854,-1.708257,0.688642,-1.937081,16.455539,6.850105,-8.196259
1.110000,-1.588775,-2.174663,1.498743,1.001507,0.378762,-0.013746,-0.300043,0.259996,-0.214631,-1.542812,0.757037,-2.016425,16.650448,6.829692,-7.516567
1.120000,-1.578775,-2.170862,1.498594,0.998432,0.381401,-0.015994,-0.314636,0.267907,-0.235159,-1.375466,0.825172,-2.087932,16.813073,6.794844,-6.774950
1.130000,-1.568807,-2.167035,1.498422,0.995220,0.384123,-0.018451,-0.327548,0.276498,-0.256364,-1.206664,0.892884,-2.151727,16.941633,6.745070,-5.974466
1.140000,-1.558871,-2.163180,1.498224,0.991887,0.386933,-0.021123,-0.338765,0.285763,-0.278165,-1.036753,0.960022,-2.207236,17.034347,6.679874,-5.118177
1.150000,-1.548969,-2.159296,1.497999,0.988450,0.389840,-0.024016,-0.348280,0.295696,-0.300479,-0.866102,1.026429,-2.253915,17.089433,6.598765,-4.209142
1.160000,-1.539102,-2.155383,1.497743,0.984927,0.392849,-0.027134,-0.356085,0.306289,-0.323219,-0.695016,1.091989,-2.291813,17.103085,6.500064,-3.236288
1.170000,-1.529271,-2.151439,1.497455,0.981334,0.395968,-0.030481,-0.362181,0.317532,-0.346282,-0.524087,1.156427,-2.319122,17.075795,6.384607,-2.218539
1.180000,-1.519476,-2.147463,1.497133,0.977689,0.399202,-0.034061,-0.366569,0.329413,-0.369567,-0.353642,1.219625,-2.336050,17.006028,6.252044,-1.160685
1.190000,-1.509717,-2.143454,1.496773,0.974008,0.402558,-0.037873,-0.369257,0.341920,-0.392967,-0.184113,1.281410,-2.342218,16.892251,6.102027,-0.067516
1.200000,-1.499996,-2.139411,1.496375,0.970309,0.406043,-0.041920,-0.370256,0.355036,-0.416374,-0.015948,1.341606,-2.337298,16.732932,5.934207,1.056176
1.210000,-1.490311,-2.135333,1.495934,0.966609,0.409661,-0.046200,-0.369578,0.368747,-0.439679,0.150681,1.400149,-2.321385,16.519166,5.745306,2.215103
1.220000,-1.480664,-2.131218,1.495450,0.962923,0.413419,-0.050713,-0.367250,0.383033,-0.462763,0.314605,1.456582,-2.293354,16.257693,5.538263,3.393809
1.230000,-1.471053,-2.127064,1.494919,0.959269,0.417324,-0.055454,-0.363296,0.397872,-0.485507,0.475673,1.510854,-2.253463,15.947881,5.313088,4.586341
1.240000,-1.461478,-2.122871,1.494340,0.955663,0.421379,-0.060421,-0.357748,0.413242,-0.507792,0.633399,1.562784,-2.201601,15.589098,5.069792,5.786745
1.250000,-1.451939,-2.118636,1.493710,0.952119,0.425590,-0.065608,-0.350641,0.429119,-0.529499,0.787290,1.612189,-2.137721,15.180713,4.808383,6.989067
1.260000,-1.442435,-2.114358,1.493027,0.948655,0.429963,-0.071009,-0.342011,0.445478,-0.550508,0.937319,1.659051,-2.061936,14.710142,4.524827,8.189934
1.270000,-1.432966,-2.110036,1.492289,0.945284,0.434501,-0.076616,-0.331911,0.462290,-0.570697,1.081862,1.702808,-1.974072,14.190170,4.223674,9.380495
1.280000,-1.423529,-2.105668,1.491494,0.942021,0.439210,-0.082420,-0.320392,0.479524,-0.589950,1.220961,1.743468,-1.874381,13.621630,3.905430,10.554481
1.290000,-1.414125,-2.101251,1.490640,0.938881,0.444093,-0.088411,-0.307511,0.497149,-0.608146,1.354135,1.780861,-1.763059,13.005355,3.570600,11.705622
1.300000,-1.404751,-2.096785,1.489725,0.935875,0.449154,-0.094579,-0.293331,0.515130,-0.625173,1.480912,1.814826,-1.640366,12.342177,3.219690,12.827647
1.310000,-1.395407,-2.092268,1.488748,0.933018,0.454396,-0.100910,-0.277910,0.533435,-0.640914,1.601381,1.845370,-1.506400,11.618885,2.848997,13.908628
1.320000,-1.386090,-2.087697,1.487707,0.930321,0.459824,-0.107392,-0.261328,0.552025,-0.655265,1.713771,1.871945,-1.362077,10.852075,2.463750,14.948648
1.330000,-1.376800,-2.083071,1.486600,0.927795,0.465438,-0.114011,-0.243661,0.570861,-0.668122,1.818286,1.894600,-1.207582,10.044298,2.064969,15.942128
1.340000,-1.367534,-2.078387,1.485426,0.925451,0.471241,-0.120750,-0.224990,0.589903,-0.679385,1.914529,1.913203,-1.043408,9.198106,1.653673,16.883493
1.350000,-1.358290,-2.073645,1.484184,0.923298,0.477236,-0.127593,-0.205399,0.609111,-0.688960,2.002129,1.927635,-0.870104,8.316052,1.230884,17.767164
1.360000,-1.349067,-2.068842,1.482874,0.921346,0.483424,-0.134523,-0.184972,0.628445,-0.696753,2.081198,1.938068,-0.687738,7.389093,0.790479,18.573971
1.370000,-1.339863,-2.063976,1.481494,0.919601,0.489805,-0.141522,-0.163806,0.647858,-0.702689,2.150330,1.943735,-0.498242,6.432796,0.341496,19.313595
1.380000,-1.330675,-2.059045,1.480043,0.918072,0.496381,-0.148570,-0.141998,0.667304,-0.706694,2.209769,1.944876,-0.301703,5.451131,-0.114170,19.982124
1.390000,-1.321501,-2.054048,1.478522,0.916763,0.503152,-0.155649,-0.119644,0.686740,-0.708702,2.259282,1.941435,-0.098850,4.448070,-0.574625,20.575647
1.400000,-1.312339,-2.048981,1.476930,0.915680,0.510116,-0.162737,-0.096846,0.706118,-0.708652,2.298673,1.933374,0.109547,3.427585,-1.037972,21.090249
1.410000,-1.303186,-2.043845,1.475267,0.914827,0.517274,-0.169815,-0.073702,0.725391,-0.706487,2.328042,1.920563,0.323431,2.387253,-1.499540,21.503021
1.420000,-1.294041,-2.038635,1.473534,0.914207,0.524623,-0.176860,-0.050320,0.744514,-0.702171,2.346674,1.903261,0.540174,1.338223,-1.960552,21.831375
1.430000,-1.284901,-2.033352,1.471730,0.913821,0.532163,-0.183851,-0.026804,0.763440,-0.695674,2.354793,1.881359,0.759772,0.285250,-2.419451,22.073725
1.440000,-1.275764,-2.027991,1.469857,0.913671,0.539891,-0.190766,-0.003259,0.782125,-0.686969,2.352382,1.854884,0.981357,-0.766911,-2.874683,22.228485
1.450000,-1.266627,-2.022553,1.467915,0.913756,0.547805,-0.197583,0.020209,0.800523,-0.676043,2.339473,1.823882,1.204045,-1.813506,-3.324694,22.294069
1.460000,-1.257488,-2.017035,1.465906,0.914074,0.555901,-0.204280,0.043495,0.818587,-0.662879,2.316125,1.788320,1.427758,-2.849242,-3.765570,22.248134
1.470000,-1.248345,-2.011435,1.463830,0.914625,0.564175,-0.210834,0.066497,0.836275,-0.647491,2.282515,1.748492,1.649635,-3.869968,-4.198402,22.112392
1.480000,-1.239195,-2.005751,1.461690,0.915403,0.572625,-0.217223,0.089112,0.853543,-0.629892,2.238791,1.704383,1.869709,-4.870995,-4.621925,21.887799
1.490000,-1.230036,-1.999981,1.459486,0.916405,0.581245,-0.223424,0.111240,0.870349,-0.610106,2.185176,1.656089,2.087098,-5.847635,-5.034871,21.575311
1.500000,-1.220866,-1.994125,1.457222,0.917626,0.590030,-0.229417,0.132783,0.886651,-0.588162,2.121936,1.603725,2.300926,-6.795197,-5.435975,21.175884
1.510000,-1.211683,-1.988180,1.454899,0.919059,0.598976,-0.235181,0.153644,0.902410,-0.564094,2.049053,1.547447,2.511067,-7.700629,-5.824820,20.671828
1.520000,-1.202484,-1.982145,1.452519,0.920696,0.608076,-0.240693,0.173735,0.917587,-0.537959,1.967674,1.487314,2.714919,-8.568631,-6.199186,20.085027
1.530000,-1.193268,-1.976018,1.450086,0.922531,0.617325,-0.245933,0.192969,0.932144,-0.509816,1.877818,1.423516,2.912503,-9.395538,-6.557701,19.418720
1.540000,-1.184033,-1.969798,1.447602,0.924553,0.626717,-0.250883,0.211264,0.946046,-0.479732,1.779913,1.356218,3.103039,-10.177686,-6.898996,18.676146
1.550000,-1.174777,-1.963484,1.445069,0.926753,0.636244,-0.255522,0.228542,0.959258,-0.447782,1.674425,1.285598,3.285782,-10.911411,-7.221699,17.860543
1.560000,-1.165497,-1.957073,1.442492,0.929120,0.645900,-0.259832,0.244723,0.971744,-0.414040,1.561319,1.211550,3.460536,-11.579427,-7.516856,16.962058
1.570000,-1.156194,-1.950565,1.439874,0.931643,0.655677,-0.263797,0.259747,0.983479,-0.378602,1.442409,1.134991,3.625391,-12.193359,-7.791609,15.998625
1.580000,-1.146864,-1.943959,1.437218,0.934311,0.665567,-0.267399,0.273552,0.994435,-0.341565,1.317639,1.055787,3.780308,-12.751209,-8.045516,14.975086
1.590000,-1.137507,-1.937253,1.434527,0.937110,0.675563,-0.270623,0.286082,1.004587,-0.303031,1.187578,0.974151,3.924709,-13.250982,-8.278136,13.896283
1.600000,-1.128121,-1.930447,1.431806,0.940028,0.685656,-0.273455,0.297288,1.013911,-0.263108,1.052819,0.890297,4.058065,-13.690681,-8.489027,12.767057
1.610000,-1.118706,-1.923540,1.429059,0.943052,0.695838,-0.275881,0.307118,1.022384,-0.221905,0.913347,0.804224,4.180128,-14.052528,-8.672167,11.586442
1.620000,-1.109260,-1.916530,1.426290,0.946166,0.706101,-0.277889,0.315544,1.029990,-0.179545,0.771271,0.716678,4.289920,-14.352241,-8.833377,10.365799
1.630000,-1.099782,-1.909418,1.423503,0.949358,0.716435,-0.279469,0.322535,1.036712,-0.136148,0.626509,0.627628,4.387329,-14.589754,-8.972899,9.110683
1.640000,-1.090273,-1.902201,1.420702,0.952612,0.726832,-0.280609,0.328067,1.042538,-0.091841,0.479684,0.537291,4.472037,-14.765005,-9.090974,7.826648
1.650000,-1.080730,-1.894881,1.417892,0.955914,0.737283,-0.281303,0.332124,1.047454,-0.046751,0.331417,0.445880,4.543784,-14.877928,-9.187842,6.519246
1.660000,-1.071154,-1.887456,1.415078,0.959250,0.747778,-0.281542,0.334686,1.051451,-0.001010,0.181746,0.353424,4.602304,-14.913625,-9.259197,5.195514
1.670000,-1.061545,-1.879925,1.412263,0.962603,0.758309,-0.281321,0.335758,1.054521,0.045251,0.032684,0.260560,4.647587,-14.888683,-9.310385,3.859340
1.680000,-1.051902,-1.872289,1.409453,0.965960,0.768865,-0.280636,0.335342,1.056660,0.091897,-0.115832,0.167281,4.679468,-14.804855,-9.342205,2.516098
1.690000,-1.042226,-1.864548,1.406652,0.969305,0.779439,-0.279483,0.333446,1.057866,0.138796,-0.263222,0.073778,4.697903,-14.663892,-9.355457,1.171159
1.700000,-1.032516,-1.856701,1.403865,0.972624,0.790019,-0.277860,0.330083,1.058136,0.185811,-0.408925,-0.019769,4.702903,-14.467548,-9.350937,-0.170104
1.710000,-1.022774,-1.848748,1.401096,0.975902,0.800598,-0.275766,0.325270,1.057470,0.232806,-0.552833,-0.113290,4.694243,-14.206506,-9.326793,-1.495047
1.720000,-1.012998,-1.840689,1.398351,0.979125,0.811166,-0.273204,0.319036,1.055871,0.279652,-0.693381,-0.206370,4.672722,-13.894942,-9.286800,-2.806461
1.730000,-1.003191,-1.832524,1.395634,0.982278,0.821713,-0.270174,0.311413,1.053344,0.326217,-0.830573,-0.298976,4.638174,-13.535964,-9.232080,-4.099866
1.740000,-0.993353,-1.824255,1.392949,0.985348,0.832230,-0.266681,0.302437,1.049894,0.372372,-0.963952,-0.390966,4.590800,-13.132680,-9.163757,-5.370780
1.750000,-0.983485,-1.815880,1.390302,0.988322,0.842707,-0.262729,0.292148,1.045527,0.417991,-1.093090,-0.482210,4.530848,-12.688197,-9.082955,-6.614721
1.760000,-0.973587,-1.807401,1.387696,0.991187,0.853137,-0.258323,0.280589,1.040252,0.462944,-1.217812,-0.572599,4.458187,-12.199989,-8.990521,-7.816515
1.770000,-0.963661,-1.798817,1.385137,0.993930,0.863510,-0.253472,0.267809,1.034078,0.507115,-1.337227,-0.661999,4.374156,-11.677487,-8.887887,-8.983683
1.780000,-0.953709,-1.790131,1.382628,0.996539,0.873816,-0.248184,0.253862,1.027016,0.550389,-1.451260,-0.750326,4.278639,-11.124489,-8.776210,-10.113054
1.790000,-0.943731,-1.781341,1.380174,0.999004,0.884047,-0.242468,0.238803,1.019076,0.592651,-1.559627,-0.837497,4.172031,-10.544792,-8.656645,-11.201457
1.800000,-0.933729,-1.772450,1.377780,1.001312,0.894194,-0.236335,0.222689,1.010270,0.633794,-1.662080,-0.923437,4.054757,-9.942194,-8.530351,-12.245718
1.810000,-0.923705,-1.763458,1.375449,1.003454,0.904249,-0.229796,0.205582,1.000612,0.673707,-1.758403,-1.008006,3.926814,-9.320616,-8.400474,-13.231028
1.820000,-0.913661,-1.754365,1.373185,1.005421,0.914204,-0.222865,0.187542,0.990114,0.712298,-1.848436,-1.091342,3.789781,-8.683716,-8.265936,-14.167279
1.830000,-0.903597,-1.745174,1.370993,1.007202,0.924049,-0.215555,0.168634,0.978790,0.749472,-1.932039,-1.173312,3.643638,-8.035276,-8.127651,-15.052725
1.840000,-0.893517,-1.735885,1.368876,1.008791,0.933777,-0.207880,0.148923,0.966653,0.785142,-2.009115,-1.253885,3.488901,-7.379078,-7.986530,-15.885618
1.850000,-0.883422,-1.726499,1.366837,1.010178,0.943379,-0.199857,0.128474,0.953717,0.819224,-2.079607,-1.333037,3.326106,-6.718905,-7.843487,-16.664213
1.860000,-0.873315,-1.717018,1.364880,1.011358,0.952849,-0.191501,0.107355,0.939998,0.851635,-2.143293,-1.410607,3.155383,-6.063574,-7.703082,-17.376141
1.870000,-0.863196,-1.707442,1.363008,1.012323,0.962177,-0.182830,0.085630,0.925509,0.882308,-2.200663,-1.486934,2.978298,-5.411216,-7.562133,-18.031578
1.880000,-0.853069,-1.697775,1.361224,1.013068,0.971356,-0.173861,0.063363,0.910264,0.911180,-2.251538,-1.561850,2.794942,-4.764994,-7.421108,-18.630078
1.890000,-0.842935,-1.688016,1.359531,1.013589,0.980380,-0.164613,0.040621,0.894277,0.938188,-2.295994,-1.635357,2.605887,-4.128076,-7.280472,-19.171195
1.900000,-0.832798,-1.678167,1.357933,1.013880,0.989239,-0.155104,0.017465,0.877562,0.963280,-2.334141,-1.707462,2.411711,-3.503627,-7.140692,-19.654483
1.910000,-0.822658,-1.668231,1.356430,1.013937,0.997928,-0.145353,-0.006038,0.860134,0.986404,-2.365789,-1.778002,2.212657,-2.903156,-7.006617,-20.071036
1.920000,-0.812520,-1.658209,1.355026,1.013758,1.006440,-0.135382,-0.029831,0.842006,1.007520,-2.391891,-1.847403,2.010104,-2.320463,-6.873793,-20.429905
1.930000,-0.802384,-1.648103,1.353723,1.013339,1.014766,-0.125210,-0.053857,0.823191,1.026595,-2.412264,-1.915482,1.804249,-1.757692,-6.742151,-20.731678
1.940000,-0.792254,-1.637915,1.352523,1.012680,1.022901,-0.114857,-0.078058,0.803701,1.043596,-2.427118,-1.982250,1.595659,-1.216987,-6.611620,-20.976947
1.950000,-0.782131,-1.627646,1.351426,1.011778,1.030838,-0.104345,-0.102382,0.783550,1.058501,-2.436685,-2.047717,1.384897,-0.700490,-6.482131,-21.166300
1.960000,-0.772019,-1.617299,1.350436,1.010632,1.038570,-0.093694,-0.126771,0.762753,1.071286,-2.440825,-2.111732,1.172282,-0.220214,-6.357727,-21.294375
1.970000,-0.761920,-1.606875,1.349553,1.009242,1.046091,-0.082926,-0.151183,0.741320,1.081943,-2.440739,-2.174690,0.958923,0.232773,-6.233720,-21.368443
1.980000,-0.751835,-1.596378,1.348778,1.007608,1.053394,-0.072062,-0.175571,0.719263,1.090463,-2.436264,-2.236406,0.745089,0.657536,-6.109535,-21.389823
1.990000,-0.741768,-1.585808,1.348112,1.005731,1.060474,-0.061124,-0.199894,0.696596,1.096845,-2.427686,-2.296878,0.531298,1.053140,-5.984598,-21.359835
2.000000,-0.731721,-1.575169,1.347556,1.003611,1.067324,-0.050133,-0.224112,0.673330,1.101091,-2.415302,-2.356094,0.318059,1.418649,-5.858336,-21.279797
2.010000,-0.721697,-1.564462,1.347109,1.001249,1.073939,-0.039109,-0.248184,0.649479,1.103208,-2.399033,-2.413921,0.105720,1.743434,-5.733125,-21.147373
2.020000,-0.711697,-1.553691,1.346773,0.998648,1.080312,-0.028075,-0.272083,0.625055,1.103211,-2.380103,-2.470615,-0.104895,2.037440,-5.605079,-20.967984
2.030000,-0.701725,-1.542857,1.346548,0.995808,1.086438,-0.017052,-0.295777,0.600071,1.101117,-2.358386,-2.526010,-0.313489,2.300919,-5.473261,-20.743398
2.040000,-0.691782,-1.531963,1.346432,0.992733,1.092311,-0.006060,-0.319242,0.574540,1.096949,-2.334185,-2.580065,-0.519618,2.534120,-5.336737,-20.475380
2.050000,-0.681871,-1.521012,1.346426,0.989424,1.097927,0.004880,-0.342454,0.548475,1.090734,-2.307803,-2.632726,-0.722858,2.737297,-5.194571,-20.165696
2.060000,-0.671994,-1.510005,1.346530,0.985885,1.103279,0.015748,-0.365388,0.521891,1.082502,-2.279234,-2.683891,-0.922870,2.903003,-5.046927,-19.814324
2.070000,-0.662154,-1.498947,1.346741,0.982117,1.108363,0.026524,-0.388033,0.494802,1.072289,-2.249495,-2.733590,-1.119098,3.040129,-4.891635,-19.425038
2.080000,-0.652352,-1.487839,1.347060,0.978125,1.113174,0.037187,-0.410374,0.467224,1.060134,-2.218523,-2.781694,-1.311251,3.149869,-4.727624,-18.999825
2.090000,-0.642592,-1.476684,1.347484,0.973911,1.117706,0.047720,-0.432400,0.439174,1.046079,-2.186585,-2.828110,-1.498981,3.233416,-4.553825,-18.540670
2.100000,-0.632875,-1.465486,1.348014,0.969478,1.121956,0.058103,-0.454104,0.410668,1.030170,-2.153938,-2.872735,-1.681958,3.291965,-4.369168,-18.049559
2.110000,-0.623203,-1.454246,1.348646,0.964830,1.125918,0.068317,-0.475476,0.381725,1.012456,-2.120645,-2.915497,-1.859885,3.322170,-4.171496,-17.528157
2.120000,-0.613579,-1.442968,1.349379,0.959970,1.129589,0.078346,-0.496516,0.352365,0.992990,-2.087365,-2.956170,-2.032442,3.330319,-3.960958,-16.978809
2.130000,-0.604004,-1.431655,1.350212,0.954901,1.132964,0.088171,-0.517223,0.322609,0.971826,-2.054107,-2.994670,-2.199375,3.318162,-3.736616,-16.403540
2.140000,-0.594482,-1.420310,1.351142,0.949626,1.136040,0.097777,-0.537599,0.292479,0.949022,-2.021064,-3.030853,-2.360433,3.287448,-3.497532,-15.804374
2.150000,-0.585013,-1.408936,1.352167,0.944150,1.138812,0.107147,-0.557646,0.262000,0.924638,-1.988414,-3.064568,-2.515389,3.239927,-3.242770,-15.183337
2.160000,-0.575599,-1.397535,1.353284,0.938474,1.141279,0.116265,-0.577368,0.231195,0.898736,-1.956265,-3.095779,-2.663998,3.176072,-2.968209,-14.543367
2.170000,-0.566244,-1.386111,1.354491,0.932603,1.143435,0.125116,-0.596773,0.200094,0.871380,-1.924879,-3.124017,-2.806156,3.099065,-2.676484,-13.885463
2.180000,-0.556948,-1.374667,1.355786,0.926540,1.145280,0.133688,-0.615869,0.168725,0.842635,-1.894321,-3.149250,-2.941654,3.010811,-2.367048,-13.211539
2.190000,-0.547714,-1.363207,1.357164,0.920287,1.146809,0.141965,-0.634663,0.137119,0.812569,-1.864694,-3.171297,-3.070340,2.913215,-2.039351,-12.523506
2.200000,-0.538543,-1.351732,1.358624,0.913848,1.148021,0.149935,-0.653166,0.105310,0.781251,-1.836082,-3.189974,-3.192083,2.808182,-1.692848,-11.823279
2.210000,-0.529437,-1.340247,1.360162,0.907225,1.148915,0.157586,-0.671388,0.073329,0.748752,-1.808557,-3.205287,-3.306691,2.697821,-1.322004,-11.114806
2.220000,-0.520399,-1.328755,1.361774,0.900421,1.149487,0.164906,-0.689341,0.041217,0.715141,-1.782146,-3.216572,-3.414260,2.583810,-0.931869,-10.397715
2.230000,-0.511429,-1.317259,1.363459,0.893439,1.149739,0.171885,-0.707035,0.009011,0.680491,-1.756887,-3.223860,-3.514622,2.468029,-0.522503,-9.673670
2.240000,-0.502531,-1.305761,1.365211,0.886281,1.149667,0.178513,-0.724482,-0.023246,0.644873,-1.732785,-3.226959,-3.607715,2.352359,-0.093969,-8.944333
2.250000,-0.493704,-1.294266,1.367028,0.878950,1.149274,0.184780,-0.741694,-0.055513,0.608361,-1.709833,-3.225676,-3.693496,2.238679,0.353669,-8.211369
2.260000,-0.484952,-1.282777,1.368905,0.871448,1.148557,0.190677,-0.758685,-0.087747,0.571029,-1.688202,-3.220036,-3.771817,2.133996,0.825772,-7.479453
2.270000,-0.476276,-1.271296,1.370840,0.863777,1.147519,0.196198,-0.775462,-0.119898,0.532949,-1.667365,-3.209342,-3.842949,2.034438,1.316191,-6.746868
2.280000,-0.467677,-1.259828,1.372828,0.855939,1.146160,0.201334,-0.792035,-0.151917,0.494194,-1.647492,-3.193654,-3.906756,1.941257,1.824200,-6.014908
2.290000,-0.459158,-1.248374,1.374865,0.847937,1.144481,0.206080,-0.808415,-0.183754,0.454838,-1.628514,-3.172801,-3.963253,1.855705,2.349070,-5.284868
2.300000,-0.450719,-1.236939,1.376948,0.839772,1.142486,0.210429,-0.824608,-0.215355,0.414954,-1.610348,-3.146619,-4.012465,1.779036,2.890077,-4.558043
2.310000,-0.442363,-1.225525,1.379073,0.831445,1.140175,0.214377,-0.840626,-0.246670,0.374615,-1.593118,-3.115182,-4.054283,1.718015,3.452382,-3.839413
2.320000,-0.434091,-1.214137,1.381235,0.822960,1.137553,0.217920,-0.856473,-0.277640,0.333892,-1.576198,-3.077788,-4.089106,1.667706,4.028649,-3.126136
2.330000,-0.425904,-1.202775,1.383430,0.814316,1.134624,0.221054,-0.872152,-0.308207,0.292856,-1.559726,-3.034567,-4.116826,1.628689,4.617430,-2.419054
2.340000,-0.417805,-1.191445,1.385654,0.805517,1.131391,0.223776,-0.887668,-0.338312,0.251579,-1.543585,-2.985402,-4.137511,1.601541,5.217277,-1.719010
2.350000,-0.409794,-1.180149,1.387904,0.796564,1.127859,0.226085,-0.903024,-0.367895,0.210129,-1.527654,-2.930189,-4.151233,1.586839,5.826742,-1.026847
2.360000,-0.401874,-1.168889,1.390175,0.787457,1.124035,0.227978,-0.918223,-0.396897,0.168579,-1.511900,-2.869045,-4.157926,1.587577,6.449559,-0.347217
2.370000,-0.394046,-1.157669,1.392462,0.778200,1.119924,0.229456,-0.933262,-0.425255,0.126993,-1.495966,-2.801409,-4.158038,1.601621,7.078465,0.323312
2.380000,-0.386311,-1.146491,1.394762,0.768793,1.115532,0.230518,-0.948141,-0.452904,0.085440,-1.479823,-2.727462,-4.151491,1.629254,7.711377,0.984363
2.390000,-0.378670,-1.135359,1.397071,0.759237,1.110868,0.231165,-0.962857,-0.479783,0.043985,-1.463334,-2.647175,-4.138383,1.670759,8.346213,1.635561
2.400000,-0.371126,-1.124275,1.399384,0.749536,1.105939,0.231399,-0.977406,-0.505827,0.002694,-1.446360,-2.560539,-4.118814,1.726417,8.980892,2.276529
2.410000,-0.363680,-1.113241,1.401698,0.739690,1.100755,0.231220,-0.991784,-0.530974,-0.038369,-1.428938,-2.467672,-4.092765,1.801069,9.616032,2.903793
2.420000,-0.356333,-1.102261,1.404007,0.729701,1.095323,0.230632,-1.005982,-0.555159,-0.079141,-1.410495,-2.368354,-4.060635,1.889881,10.246519,3.520453
2.430000,-0.349087,-1.091335,1.406309,0.719571,1.089655,0.229638,-1.019991,-0.578320,-0.119561,-1.391094,-2.262765,-4.022392,1.992576,10.869941,4.126510
2.440000,-0.341942,-1.080468,1.408599,0.709302,1.083760,0.228242,-1.033801,-0.600394,-0.159568,-1.370598,-2.150987,-3.978140,2.108878,11.483885,4.721969
2.450000,-0.334901,-1.069661,1.410872,0.698896,1.077651,0.226449,-1.047399,-0.621319,-0.199104,-1.348872,-2.033127,-3.927987,2.238512,12.085938,5.306832
2.460000,-0.327965,-1.058916,1.413126,0.688355,1.071338,0.224262,-1.060775,-0.641037,-0.238108,-1.325900,-1.909338,-3.871985,2.384124,12.674243,5.879745
2.470000,-0.321134,-1.048235,1.415356,0.677681,1.064834,0.221688,-1.073912,-0.659487,-0.276525,-1.301279,-1.779723,-3.810367,2.542157,13.245763,6.442233
2.480000,-0.314411,-1.037620,1.417559,0.666877,1.058153,0.218734,-1.086795,-0.676612,-0.314297,-1.275018,-1.644487,-3.743175,2.711978,13.798017,6.994465
2.490000,-0.307797,-1.027072,1.419730,0.655946,1.051307,0.215405,-1.099406,-0.692358,-0.351370,-1.247002,-1.503835,-3.670511,2.892951,14.328526,7.536608
2.500000,-0.301293,-1.016594,1.421866,0.644890,1.044310,0.211709,-1.111729,-0.706672,-0.387689,-1.217124,-1.357997,-3.592476,3.084443,14.834807,8.068832
2.510000,-0.294900,-1.006187,1.423963,0.633712,1.037178,0.207654,-1.123743,-0.719501,-0.423202,-1.185311,-1.207148,-3.509211,3.286585,15.312370,8.592414
2.520000,-0.288619,-0.995851,1.426018,0.622416,1.029925,0.203248,-1.135428,-0.730799,-0.457856,-1.151396,-1.051756,-3.420709,3.497883,15.760990,9.106278
2.530000,-0.282452,-0.985588,1.428027,0.611005,1.022567,0.198500,-1.146763,-0.740522,-0.491600,-1.115325,-0.892032,-3.327118,3.717611,16.178433,9.610456
2.540000,-0.276399,-0.975400,1.429986,0.599482,1.015120,0.193419,-1.157727,-0.748626,-0.524382,-1.077018,-0.728299,-3.228532,3.945040,16.562464,10.104982
2.550000,-0.270463,-0.965286,1.431894,0.587852,1.007600,0.188015,-1.168296,-0.755075,-0.556154,-1.036401,-0.560902,-3.125050,4.179442,16.910848,10.589888
2.560000,-0.264643,-0.955248,1.433746,0.576118,1.000024,0.182299,-1.178447,-0.759832,-0.586868,-0.993432,-0.390026,-3.016900,4.420685,17.216742,11.068563
2.570000,-0.258941,-0.945286,1.435539,0.564284,0.992409,0.176282,-1.188157,-0.762866,-0.616476,-0.947996,-0.216493,-2.903862,4.667373,17.483084,11.537273
2.580000,-0.253357,-0.935400,1.437270,0.552356,0.984773,0.169974,-1.197399,-0.764153,-0.644930,-0.900069,-0.040502,-2.786189,4.918705,17.708204,11.995640
2.590000,-0.247894,-0.925590,1.438937,0.540338,0.977132,0.163387,-1.206150,-0.763670,-0.672185,-0.849609,0.137528,-2.663985,5.173879,17.890433,12.443285
2.600000,-0.242551,-0.915857,1.440537,0.528235,0.969505,0.156534,-1.214383,-0.761397,-0.698195,-0.796581,0.317159,-2.537360,5.432096,18.028098,12.879831
2.610000,-0.237329,-0.906200,1.442067,0.516052,0.961910,0.149427,-1.222073,-0.757320,-0.722920,-0.740968,0.498214,-2.406605,5.692765,18.112509,13.309412
2.620000,-0.232230,-0.896619,1.443525,0.503795,0.954365,0.142080,-1.229193,-0.751431,-0.746313,-0.682731,0.679565,-2.271414,5.954848,18.149877,13.726584
2.630000,-0.227254,-0.887113,1.444908,0.491470,0.946888,0.134506,-1.235718,-0.743728,-0.768334,-0.621869,0.861052,-2.132118,6.217520,18.139391,14.130417
2.640000,-0.222401,-0.877681,1.446214,0.479083,0.939496,0.126718,-1.241622,-0.734211,-0.788942,-0.558381,1.042191,-1.988854,6.479954,18.080242,14.519980
2.650000,-0.217672,-0.868322,1.447442,0.466640,0.932209,0.118732,-1.246877,-0.722887,-0.808099,-0.492273,1.222492,-1.841769,6.741323,17.971618,14.894342
2.660000,-0.213068,-0.859036,1.448588,0.454148,0.925045,0.110561,-1.251459,-0.709762,-0.825767,-0.423562,1.401809,-1.691180,7.000829,17.803775,15.256608
2.670000,-0.208589,-0.849821,1.449653,0.441613,0.918020,0.102222,-1.255340,-0.694857,-0.841910,-0.352267,1.578800,-1.536875,7.257615,17.585931,15.601317
2.680000,-0.204236,-0.840675,1.450632,0.429043,0.911153,0.093728,-1.258496,-0.678194,-0.856494,-0.278421,1.753362,-1.379217,7.510849,17.318369,15.927045
2.690000,-0.200009,-0.831597,1.451527,0.416446,0.904462,0.085097,-1.260900,-0.659799,-0.869484,-0.202065,1.925002,-1.218403,7.759703,17.001373,16.232367
2.700000,-0.195907,-0.822585,1.452334,0.403828,0.897963,0.076344,-1.262529,-0.639705,-0.880852,-0.123245,2.093226,-1.054643,8.003347,16.635227,16.515857
2.710000,-0.191932,-0.813637,1.453053,0.391198,0.891673,0.067486,-1.263357,-0.617944,-0.890569,-0.042014,2.257936,-0.888235,8.240839,16.210305,16.777899
2.720000,-0.188083,-0.804751,1.453683,0.378564,0.885609,0.058538,-1.263361,-0.594562,-0.898608,0.041554,2.417717,-0.719248,8.471475,15.738013,17.015038
2.730000,-0.184361,-0.795924,1.454224,0.365933,0.879787,0.049519,-1.262518,-0.569606,-0.904946,0.127390,2.572543,-0.548022,8.694437,15.219848,17.225628
2.740000,-0.180765,-0.787155,1.454674,0.353316,0.874222,0.040445,-1.260806,-0.543129,-0.909562,0.215415,2.721966,-0.374830,8.908909,14.657308,17.408023
2.750000,-0.177294,-0.778439,1.455032,0.340720,0.868930,0.031334,-1.258203,-0.515186,-0.912437,0.305538,2.865547,-0.199961,9.114076,14.051889,17.560577
2.760000,-0.173950,-0.769775,1.455300,0.328155,0.863923,0.022202,-1.254688,-0.485835,-0.913556,0.397679,3.003239,-0.023656,9.308692,13.395666,17.679932
2.770000,-0.170731,-0.761160,1.455476,0.315630,0.859217,0.013068,-1.250243,-0.455144,-0.912907,0.491694,3.133752,0.153604,9.492421,12.700712,17.766363
2.780000,-0.167637,-0.752590,1.455562,0.303153,0.854825,0.003950,-1.244849,-0.423183,-0.910482,0.587489,3.257133,0.331557,9.664500,11.969679,17.818432
2.790000,-0.164668,-0.744062,1.455556,0.290736,0.850758,-0.005135,-1.238488,-0.390026,-0.906275,0.684943,3.373034,0.509853,9.824164,11.205216,17.834703
2.800000,-0.161822,-0.735573,1.455459,0.278387,0.847028,-0.014170,-1.231145,-0.355749,-0.900285,0.783928,3.481134,0.688127,9.970648,10.409976,17.813739
2.810000,-0.159100,-0.727120,1.455272,0.266116,0.843646,-0.023135,-1.222804,-0.320428,-0.892511,0.884317,3.581383,0.866213,10.103005,9.580470,17.748702
2.820000,-0.156500,-0.718699,1.454997,0.253934,0.840622,-0.032014,-1.213454,-0.284149,-0.882963,0.985948,3.672935,1.043211,10.220677,8.726239,17.644218
2.830000,-0.154021,-0.710307,1.454632,0.241851,0.837966,-0.040789,-1.203082,-0.246998,-0.871651,1.088679,3.755836,1.218963,10.322923,7.850686,17.499511
2.840000,-0.151662,-0.701939,1.454181,0.229876,0.835685,-0.049441,-1.191677,-0.209062,-0.858589,1.192352,3.829889,1.393064,10.409001,6.957215,17.313806
2.850000,-0.149423,-0.693592,1.453644,0.218021,0.833787,-0.057955,-1.179232,-0.170430,-0.843797,1.296802,3.894932,1.565100,10.478171,6.049228,17.086327
2.860000,-0.147302,-0.685262,1.453023,0.206295,0.832278,-0.066312,-1.165737,-0.131193,-0.827292,1.402030,3.950935,1.734965,10.525316,5.127649,16.808313
2.870000,-0.145297,-0.676945,1.452318,0.194709,0.831165,-0.074495,-1.151190,-0.091442,-0.809107,1.507445,3.997571,1.901482,10.554605,4.198664,16.487952
2.880000,-0.143407,-0.668637,1.451533,0.183274,0.830451,-0.082488,-1.135588,-0.051272,-0.789274,1.613062,4.034896,2.064584,10.565832,3.265976,16.125447
2.890000,-0.141631,-0.660334,1.450669,0.172001,0.830140,-0.090275,-1.118929,-0.010776,-0.767828,1.718700,4.062891,2.223851,10.558793,2.333293,15.721000
2.900000,-0.139966,-0.652033,1.449729,0.160899,0.830236,-0.097840,-1.101214,0.029955,-0.744811,1.824176,4.081574,2.378865,10.533281,1.404321,15.274814
2.910000,-0.138412,-0.643728,1.448713,0.149980,0.830740,-0.105166,-1.082446,0.070823,-0.720263,1.929328,4.090811,2.529547,10.488489,0.487571,14.778553
2.920000,-0.136966,-0.635417,1.447626,0.139254,0.831653,-0.112240,-1.062630,0.111740,-0.694237,2.033910,4.091146,2.674683,10.424887,-0.418645,14.242004
2.930000,-0.135626,-0.627094,1.446469,0.128731,0.832975,-0.119046,-1.041771,0.152616,-0.666788,2.137762,4.082484,2.814257,10.342343,-1.311209,13.666414
2.940000,-0.134391,-0.618756,1.445246,0.118422,0.834705,-0.125571,-1.019878,0.193361,-0.637972,2.240693,4.064978,2.947885,10.240725,-2.187005,13.053031
2.950000,-0.133257,-0.610399,1.443959,0.108337,0.836841,-0.131801,-0.996960,0.233887,-0.607851,2.342513,4.038810,3.075196,10.119902,-3.042916,12.403103
2.960000,-0.132223,-0.602018,1.442611,0.098486,0.839382,-0.137724,-0.973031,0.274105,-0.576487,2.443089,4.003876,3.196121,9.978170,-3.867740,11.710510
2.970000,-0.131287,-0.593610,1.441206,0.088880,0.842322,-0.143327,-0.948104,0.313937,-0.543953,2.542082,3.961178,3.309624,9.817161,-4.667433,10.984771
2.980000,-0.130445,-0.585170,1.439746,0.079527,0.845659,-0.148600,-0.922195,0.353303,-0.510320,2.639368,3.910618,3.415713,9.636935,-5.439868,10.228034
2.990000,-0.129695,-0.576695,1.438235,0.070439,0.849386,-0.153530,-0.895323,0.392124,-0.475664,2.734757,3.852479,3.514089,9.437554,-6.182916,9.442452
3.000000,-0.129035,-0.568181,1.436676,0.061624,0.853499,-0.158110,-0.867507,0.430328,-0.440064,2.828056,3.787065,3.604473,9.219078,-6.894451,8.630173
3.010000,-0.128462,-0.559624,1.435074,0.053092,0.857991,-0.162329,-0.838767,0.467839,-0.403600,2.919310,3.714373,3.686803,8.975621,-7.564028,7.788475
3.020000,-0.127972,-0.551020,1.433431,0.044852,0.862854,-0.166179,-0.809129,0.504594,-0.366357,3.007773,3.635529,3.760388,8.713919,-8.198855,6.924977
3.030000,-0.127564,-0.542366,1.431751,0.036912,0.868080,-0.169654,-0.778620,0.540529,-0.328421,3.093530,3.550515,3.825239,8.434759,-8.797821,6.042427
3.040000,-0.127233,-0.533657,1.430039,0.029282,0.873661,-0.172746,-0.747268,0.575585,-0.289882,3.176413,3.459696,3.881182,8.138931,-9.359817,5.143570
3.050000,-0.126977,-0.524891,1.428298,0.021969,0.879588,-0.175449,-0.715102,0.609705,-0.250828,3.256256,3.363446,3.928065,7.827224,-9.883734,4.231155
3.060000,-0.126792,-0.516064,1.426531,0.014983,0.885852,-0.177761,-0.682153,0.642832,-0.211350,3.332954,3.261736,3.965829,7.499224,-10.357960,3.306398
3.070000,-0.126676,-0.507173,1.424744,0.008329,0.892442,-0.179675,-0.648454,0.674924,-0.171542,3.406247,3.155948,3.994235,7.157068,-10.793174,2.373763
3.080000,-0.126625,-0.498214,1.422939,0.002016,0.899347,-0.181191,-0.614040,0.705937,-0.131497,3.476052,3.046002,4.013288,6.801695,-11.189552,1.436184
3.090000,-0.126635,-0.489185,1.421121,-0.003950,0.906557,-0.182305,-0.578945,0.735832,-0.091308,3.542240,2.932286,4.022952,6.434038,-11.547271,0.496594
3.100000,-0.126703,-0.480082,1.419295,-0.009561,0.914060,-0.183017,-0.543207,0.764572,-0.051069,3.604695,2.815185,4.023223,6.055035,-11.866507,-0.442073
3.110000,-0.126825,-0.470903,1.417462,-0.014812,0.921844,-0.183326,-0.506864,0.792122,-0.010875,3.663355,2.694758,4.014061,5.664396,-12.139222,-1.375285
3.120000,-0.126998,-0.461644,1.415629,-0.019696,0.929898,-0.183235,-0.469953,0.818458,0.029181,3.718006,2.572157,3.995668,5.264433,-12.374814,-2.301901
3.130000,-0.127217,-0.452304,1.413799,-0.024209,0.938209,-0.182744,-0.432517,0.843558,0.069007,3.768616,2.447382,3.968054,4.856231,-12.574463,-3.219184
3.140000,-0.127481,-0.442879,1.411976,-0.028345,0.946765,-0.181856,-0.394595,0.867400,0.108512,3.815107,2.320784,3.931325,4.440878,-12.739354,-4.124394
3.150000,-0.127783,-0.433368,1.410163,-0.032099,0.955553,-0.180575,-0.356229,0.889968,0.147604,3.857413,2.192706,3.885615,4.019459,-12.870668,-5.014794
3.160000,-0.128121,-0.423768,1.408366,-0.035468,0.964560,-0.178905,-0.317461,0.911248,0.186193,3.895495,2.063271,3.830929,3.592670,-12.964349,-5.883651
3.170000,-0.128491,-0.414076,1.406586,-0.038448,0.973774,-0.176853,-0.278333,0.931231,0.224194,3.929271,1.933287,3.767830,3.162036,-13.027460,-6.732709
3.180000,-0.128889,-0.404292,1.404830,-0.041034,0.983181,-0.174424,-0.238890,0.949912,0.261522,3.958727,1.802818,3.696348,2.728691,-13.061824,-7.559721
3.190000,-0.129310,-0.394412,1.403099,-0.043224,0.992768,-0.171625,-0.199173,0.967287,0.298094,3.983840,1.672141,3.616716,2.293768,-13.069265,-8.362436
3.200000,-0.129752,-0.384436,1.401399,-0.045017,1.002522,-0.168464,-0.159227,0.983355,0.333830,4.004601,1.541516,3.529188,1.858403,-13.051607,-9.138605
3.210000,-0.130209,-0.374361,1.399731,-0.046408,1.012431,-0.164951,-0.119096,0.998117,0.368650,4.020981,1.411114,3.433828,1.424455,-13.008859,-9.880619
3.220000,-0.130679,-0.364187,1.398101,-0.047398,1.022480,-0.161095,-0.078822,1.011579,0.402482,4.033063,1.281329,3.331438,0.992243,-12.944882,-10.592245
3.230000,-0.131156,-0.353911,1.396510,-0.047984,1.032658,-0.156905,-0.038449,1.023746,0.435255,4.040836,1.152281,3.222090,0.562813,-12.861721,-11.271892
3.240000,-0.131637,-0.343533,1.394964,-0.048167,1.042951,-0.152393,0.001980,1.034628,0.466902,4.044332,1.024152,3.106112,0.137210,-12.761424,-11.917966
3.250000,-0.132118,-0.333052,1.393464,-0.047945,1.053346,-0.147571,0.042424,1.044233,0.497357,4.043596,0.897102,2.983848,-0.283522,-12.646035,-12.528875
3.260000,-0.132595,-0.322466,1.392013,-0.047318,1.063831,-0.142450,0.082838,1.052575,0.526556,4.038616,0.771333,2.855430,-0.696682,-12.519087,-13.097295
3.270000,-0.133063,-0.311775,1.390615,-0.046288,1.074393,-0.137044,0.123182,1.059664,0.554447,4.029611,0.646824,2.721771,-1.103082,-12.380958,-13.628067
3.280000,-0.133519,-0.300978,1.389273,-0.044855,1.085020,-0.131366,0.163416,1.065516,0.580975,4.016579,0.523745,2.582997,-1.501881,-12.233511,-14.120299
3.290000,-0.133959,-0.290074,1.387989,-0.043020,1.095700,-0.125429,0.203501,1.070144,0.606091,3.999602,0.402179,2.439497,-1.892236,-12.078612,-14.573100
3.300000,-0.134378,-0.279064,1.386765,-0.040786,1.106419,-0.119249,0.243396,1.073565,0.629750,3.978766,0.282191,2.291669,-2.273304,-11.918123,-14.985580
3.310000,-0.134773,-0.267946,1.385605,-0.038153,1.117167,-0.112839,0.283062,1.075795,0.651909,3.954078,0.163991,2.139710,-2.641943,-11.757999,-15.351472
3.320000,-0.135140,-0.256720,1.384509,-0.035125,1.127931,-0.106216,0.322465,1.076850,0.672533,3.925860,0.047222,1.984538,-2.999892,-11.595513,-15.675918
3.330000,-0.135474,-0.245387,1.383481,-0.031705,1.138700,-0.099394,0.361568,1.076745,0.691590,3.894118,-0.067916,1.826330,-3.346591,-11.432028,-15.958687
3.340000,-0.135773,-0.233946,1.382522,-0.027895,1.149462,-0.092389,0.400336,1.075497,0.709051,3.858967,-0.181420,1.665504,-3.681479,-11.268908,-16.199545
3.350000,-0.136031,-0.222398,1.381634,-0.023699,1.160206,-0.085218,0.438736,1.073122,0.724892,3.820529,-0.293300,1.502480,-4.003996,-11.107514,-16.398260
3.360000,-0.136245,-0.210742,1.380818,-0.019122,1.170921,-0.077897,0.476735,1.069639,0.739093,3.778827,-0.403357,1.337496,-4.310966,-10.954851,-16.549938
3.370000,-0.136412,-0.198980,1.380076,-0.014166,1.181595,-0.070442,0.514303,1.065060,0.751638,3.734237,-0.512158,1.171413,-4.604764,-10.805950,-16.659578
3.380000,-0.136528,-0.187110,1.379410,-0.008837,1.192218,-0.062870,0.551410,1.059400,0.762518,3.686776,-0.619491,1.004443,-4.885149,-10.661486,-16.727519
3.390000,-0.136588,-0.175135,1.378819,-0.003140,1.202780,-0.055197,0.588029,1.052675,0.771725,3.636580,-0.725405,0.837001,-5.151880,-10.522130,-16.754099
3.400000,-0.136589,-0.163055,1.378306,0.002922,1.213268,-0.047441,0.624133,1.044897,0.779258,3.583785,-0.829953,0.669498,-5.404717,-10.388555,-16.739656
3.410000,-0.136528,-0.150870,1.377871,0.009341,1.223674,-0.039617,0.659696,1.036083,0.785115,3.528430,-0.932959,0.502189,-5.640825,-10.267439,-16.680628
3.420000,-0.136401,-0.138582,1.377514,0.016114,1.233987,-0.031744,0.694694,1.026242,0.789304,3.470900,-1.035055,0.335844,-5.862876,-10.152714,-16.581731
3.430000,-0.136205,-0.126191,1.377236,0.023233,1.244196,-0.023837,0.729106,1.015385,0.791836,3.411219,-1.136035,0.170684,-6.070946,-10.044319,-16.443781
3.440000,-0.135935,-0.113698,1.377037,0.030694,1.254291,-0.015913,0.762912,1.003524,0.792723,3.349527,-1.235962,0.007096,-6.265112,-9.942190,-16.267594
3.450000,-0.135590,-0.101105,1.376918,0.038489,1.264263,-0.007988,0.796091,0.990669,0.791984,3.285963,-1.334899,-0.154543,-6.445451,-9.846265,-16.053985
3.460000,-0.135164,-0.088414,1.376877,0.046614,1.274101,-0.000078,0.828624,0.976832,0.789638,3.220574,-1.432700,-0.313991,-6.609777,-9.761738,-15.800512
3.470000,-0.134656,-0.075624,1.376916,0.055060,1.283796,0.007800,0.860497,0.962018,0.785713,3.153711,-1.529917,-0.470581,-6.760707,-9.682647,-15.511647
3.480000,-0.134062,-0.062738,1.377033,0.063821,1.293338,0.015631,0.891694,0.946236,0.780237,3.085404,-1.626368,-0.624110,-6.898597,-9.608286,-15.188606
3.490000,-0.133379,-0.049758,1.377228,0.072891,1.302718,0.023399,0.922201,0.929493,0.773242,3.015781,-1.722097,-0.774243,-7.023799,-9.537947,-14.832605
3.500000,-0.132603,-0.036684,1.377501,0.082263,1.311925,0.031091,0.952005,0.911796,0.764765,2.944969,-1.817138,-0.920656,-7.136669,-9.470924,-14.444857
3.510000,-0.131733,-0.023520,1.377850,0.091929,1.320950,0.038690,0.981096,0.893154,0.754841,2.873022,-1.911380,-1.063147,-7.235888,-9.410132,-14.023842
3.520000,-0.130764,-0.010266,1.378274,0.101882,1.329785,0.046183,1.009463,0.873571,0.743516,2.800214,-2.005184,-1.201159,-7.323689,-9.350802,-13.573846
3.530000,-0.129694,0.003075,1.378773,0.112116,1.338419,0.053556,1.037097,0.853052,0.730834,2.726584,-2.098398,-1.334532,-7.400628,-9.291782,-13.096419
3.540000,-0.128521,0.016502,1.379345,0.122622,1.346843,0.060795,1.063992,0.831605,0.716842,2.652236,-2.191017,-1.463001,-7.467267,-9.231925,-12.593109
3.550000,-0.127241,0.030011,1.379989,0.133393,1.355048,0.067888,1.090140,0.809234,0.701591,2.577271,-2.283029,-1.586313,-7.524163,-9.170081,-12.065467
3.560000,-0.125852,0.043602,1.380702,0.144422,1.363024,0.074823,1.115535,0.785947,0.685133,2.501749,-2.374352,-1.704321,-7.570991,-9.106516,-11.512850
3.570000,-0.124351,0.057271,1.381485,0.155701,1.370764,0.081587,1.140174,0.761749,0.667523,2.425840,-2.465082,-1.816598,-7.609303,-9.038491,-10.939268
3.580000,-0.122737,0.071016,1.382333,0.167223,1.378256,0.088170,1.164051,0.736648,0.648820,2.349589,-2.555103,-1.923042,-7.639766,-8.964684,-10.346541
3.590000,-0.121006,0.084835,1.383247,0.178980,1.385494,0.094560,1.187164,0.710650,0.629083,2.273069,-2.644352,-2.023471,-7.663047,-8.883771,-9.736486
3.600000,-0.119157,0.098725,1.384224,0.190964,1.392466,0.100748,1.209512,0.683763,0.608371,2.196349,-2.732750,-2.117720,-7.679813,-8.794430,-9.110921
3.610000,-0.117186,0.112684,1.385262,0.203168,1.399166,0.106725,1.231091,0.655997,0.586749,2.119493,-2.820246,-2.205701,-7.690752,-8.694361,-8.470220
3.620000,-0.115093,0.126708,1.386358,0.215583,1.405583,0.112480,1.251901,0.627362,0.564279,2.042553,-2.906644,-2.287150,-7.696507,-8.583337,-7.817823
3.630000,-0.112874,0.140794,1.387510,0.228203,1.411710,0.118008,1.271942,0.597868,0.541027,1.965578,-2.991873,-2.362025,-7.697745,-8.460156,-7.155725
3.640000,-0.110528,0.154941,1.388717,0.241019,1.417538,0.123299,1.291213,0.567529,0.517061,1.888611,-3.075803,-2.430239,-7.695129,-8.323612,-6.485921
3.650000,-0.108053,0.169144,1.389976,0.254025,1.423058,0.128347,1.309714,0.536357,0.492445,1.811686,-3.158296,-2.491725,-7.689324,-8.172504,-5.810405
3.660000,-0.105447,0.183401,1.391283,0.267211,1.428262,0.133145,1.327447,0.504367,0.467249,1.734870,-3.239326,-2.546449,-7.681937,-8.002450,-5.130824
3.670000,-0.102708,0.197708,1.392638,0.280571,1.433143,0.137690,1.344412,0.471577,0.441539,1.658096,-3.318432,-2.594351,-7.672575,-7.815814,-4.449564
3.680000,-0.099835,0.212063,1.394036,0.294097,1.437691,0.141975,1.360609,0.438005,0.415384,1.581423,-3.395585,-2.635441,-7.661789,-7.611780,-3.768665
3.690000,-0.096826,0.226461,1.395476,0.307781,1.441900,0.145996,1.376041,0.403672,0.388853,1.504863,-3.470607,-2.669732,-7.650126,-7.389536,-3.090163
3.700000,-0.093679,0.240900,1.396955,0.321615,1.445762,0.149751,1.390707,0.368600,0.362012,1.428422,-3.543312,-2.697259,-7.638137,-7.148265,-2.416097
3.710000,-0.090393,0.255375,1.398470,0.335592,1.449270,0.153236,1.404610,0.332812,0.334930,1.352170,-3.613698,-2.718032,-7.628146,-6.882297,-1.749614
3.720000,-0.086966,0.269884,1.400019,0.349705,1.452416,0.156449,1.417751,0.296336,0.307674,1.275936,-3.681108,-2.732230,-7.618710,-6.596269,-1.091506
3.730000,-0.083398,0.284422,1.401598,0.363945,1.455195,0.159389,1.430129,0.259200,0.280308,1.199793,-3.745556,-2.739896,-7.610161,-6.289962,-0.443676
3.740000,-0.079687,0.298986,1.403206,0.378305,1.457598,0.162055,1.441747,0.221435,0.252897,1.123729,-3.806839,-2.741144,-7.602830,-5.963157,0.191973
3.750000,-0.075832,0.313573,1.404839,0.392777,1.459621,0.164447,1.452604,0.183074,0.225506,1.047731,-3.864750,-2.736104,-7.597050,-5.615634,0.813540
3.760000,-0.071831,0.328178,1.406494,0.407354,1.461258,0.166565,1.462703,0.144150,0.198197,0.971870,-3.919296,-2.724817,-7.595379,-5.241751,1.416344
3.770000,-0.067684,0.342797,1.408169,0.422029,1.462503,0.168411,1.472042,0.104701,0.171029,0.895916,-3.969759,-2.707712,-7.595650,-4.847376,2.001602
3.780000,-0.063390,0.357426,1.409861,0.436793,1.463350,0.169986,1.480621,0.064768,0.144062,0.819950,-4.016177,-2.684848,-7.597921,-4.432952,2.567751
3.790000,-0.058948,0.372062,1.411568,0.451639,1.463796,0.171293,1.488440,0.024392,0.117351,0.743951,-4.058353,-2.656425,-7.602253,-3.998927,3.113229
3.800000,-0.054357,0.386701,1.413286,0.466559,1.463837,0.172334,1.495500,-0.016384,0.090951,0.667898,-4.096092,-2.622658,-7.608704,-3.545743,3.636475
3.810000,-0.049617,0.401338,1.415014,0.481546,1.463468,0.173113,1.501800,-0.057518,0.064916,0.591927,-4.129491,-2.583600,-7.621303,-3.066615,4.131504
3.820000,-0.044726,0.415969,1.416748,0.496592,1.462686,0.173634,1.507338,-0.098958,0.039295,0.515643,-4.157689,-2.539913,-7.635655,-2.570104,4.601718
3.830000,-0.039685,0.430590,1.418485,0.511690,1.461488,0.173901,1.512112,-0.140655,0.014133,0.439209,-4.180840,-2.491652,-7.651331,-2.057539,5.046096
3.840000,-0.034492,0.445197,1.420225,0.526832,1.459872,0.173918,1.516121,-0.182557,-0.010524,0.362614,-4.198791,-2.439081,-7.667905,-1.530252,5.463618
3.850000,-0.029148,0.459786,1.421963,0.542010,1.457836,0.173692,1.519364,-0.224613,-0.034635,0.285850,-4.211400,-2.382473,-7.684951,-0.989572,5.853263
3.860000,-0.023652,0.474353,1.423698,0.557217,1.455379,0.173228,1.521838,-0.266770,-0.058158,0.208960,-4.218790,-2.321886,-7.703178,-0.430565,6.208309
3.870000,-0.018004,0.488892,1.425427,0.572444,1.452501,0.172531,1.523543,-0.308970,-0.081061,0.131839,-4.220258,-2.258149,-7.720884,0.138408,6.534135
3.880000,-0.012203,0.503401,1.427148,0.587685,1.449200,0.171609,1.524475,-0.351156,-0.103311,0.054545,-4.215996,-2.191302,-7.737501,0.715249,6.830419
3.890000,-0.006250,0.517875,1.428858,0.602931,1.445478,0.170467,1.524633,-0.393270,-0.124878,-0.022906,-4.205934,-2.121640,-7.752465,1.297861,7.096839
3.900000,-0.000144,0.532309,1.430556,0.618175,1.441335,0.169113,1.524016,-0.435255,-0.145735,-0.100496,-4.190026,-2.049465,-7.765209,1.884148,7.333073
3.910000,0.006113,0.546700,1.432240,0.633409,1.436773,0.167555,1.522621,-0.477048,-0.165857,-0.178318,-4.167971,-1.974830,-7.772212,2.465065,7.532469
3.920000,0.012524,0.561043,1.433907,0.648625,1.431795,0.165799,1.520449,-0.518595,-0.185226,-0.256063,-4.140414,-1.898634,-7.776224,3.046313,7.701809
3.930000,0.019086,0.575335,1.435555,0.663815,1.426402,0.163853,1.517500,-0.559837,-0.203825,-0.333832,-4.107048,-1.820892,-7.777042,3.626644,7.841545
3.940000,0.025800,0.589570,1.437183,0.678972,1.420599,0.161725,1.513773,-0.600717,-0.221639,-0.411592,-4.067888,-1.741900,-7.774461,4.204811,7.952132
3.950000,0.032665,0.603745,1.438789,0.694088,1.414389,0.159423,1.509268,-0.641176,-0.238659,-0.489309,-4.022963,-1.661945,-7.768278,4.779567,8.034021
3.960000,0.039681,0.617856,1.440371,0.709155,1.407777,0.156954,1.503988,-0.681158,-0.254873,-0.566872,-3.972413,-1.581076,-7.760122,5.352223,8.081652
3.970000,0.046848,0.631900,1.441928,0.724165,1.400768,0.154328,1.497931,-0.720605,-0.270280,-0.644415,-3.916053,-1.500134,-7.747731,5.918662,8.102228
3.980000,0.054165,0.645871,1.443457,0.739111,1.393367,0.151551,1.491100,-0.759460,-0.284876,-0.721812,-3.854066,-1.419117,-7.730676,6.477324,8.096937
3.990000,0.061630,0.659766,1.444958,0.753985,1.385581,0.148633,1.483496,-0.797668,-0.298663,-0.799012,-3.786538,-1.338278,-7.708528,7.026648,8.066968
4.000000,0.069244,0.673581,1.446429,0.768778,1.377416,0.145581,1.475121,-0.835173,-0.311643,-0.875964,-3.713569,-1.257856,-7.680859,7.565074,8.013511
4.010000,0.077005,0.687313,1.447869,0.783485,1.368880,0.142403,1.465978,-0.871925,-0.323820,-0.952525,-3.635640,-1.177933,-7.649377,8.100181,7.933992
4.020000,0.084913,0.700957,1.449277,0.798095,1.359980,0.139107,1.456071,-0.907868,-0.335205,-1.028834,-3.552024,-1.099077,-7.611255,8.620152,7.833824
4.030000,0.092967,0.714511,1.450651,0.812603,1.350726,0.135701,1.445403,-0.942949,-0.345805,-1.104725,-3.463296,-1.021320,-7.565801,9.122307,7.714655
4.040000,0.101165,0.727971,1.451991,0.827001,1.341124,0.132193,1.433978,-0.977118,-0.355635,-1.180123,-3.369646,-0.944842,-7.512325,9.603968,7.578136
4.050000,0.109507,0.741332,1.453295,0.841281,1.331186,0.128591,1.421802,-1.010326,-0.364707,-1.254943,-3.271294,-0.869809,-7.450136,10.062455,7.425917
4.060000,0.117990,0.754593,1.454562,0.855435,1.320921,0.124902,1.408878,-1.042521,-0.373036,-1.329452,-3.167805,-0.796347,-7.369496,10.477960,7.259065
4.070000,0.126615,0.767750,1.455793,0.869456,1.310339,0.121133,1.395216,-1.073669,-0.380640,-1.402707,-3.061058,-0.724643,-7.279869,10.867031,7.079883
4.080000,0.135379,0.780799,1.456985,0.883337,1.299451,0.117291,1.380827,-1.103730,-0.387535,-1.475021,-2.950555,-0.654785,-7.181674,11.229086,6.890092
4.090000,0.144281,0.793738,1.458138,0.897070,1.288268,0.113384,1.365719,-1.132668,-0.393742,-1.546313,-2.836568,-0.586871,-7.075327,11.563546,6.691414
4.100000,0.153320,0.806563,1.459252,0.910649,1.276802,0.109419,1.349904,-1.160451,-0.399280,-1.616502,-2.719378,-0.520981,-6.961246,11.869827,6.485570
4.110000,0.162493,0.819273,1.460326,0.924066,1.265063,0.105401,1.333392,-1.187043,-0.404169,-1.685604,-2.598940,-0.457254,-6.837552,12.139085,6.276218
4.120000,0.171801,0.831864,1.461360,0.937314,1.253065,0.101337,1.316196,-1.212421,-0.408432,-1.753334,-2.476321,-0.395556,-6.707239,12.380014,6.062905
4.130000,0.181239,0.844333,1.462353,0.950387,1.240819,0.097234,1.298330,-1.236561,-0.412088,-1.819729,-2.351433,-0.336005,-6.571006,12.593045,5.847114
4.140000,0.190808,0.856679,1.463305,0.963279,1.228338,0.093098,1.279806,-1.259443,-0.415159,-1.884736,-2.224552,-0.278617,-6.429551,12.778609,5.630329
4.150000,0.200504,0.868899,1.464215,0.975981,1.215634,0.088933,1.260640,-1.281047,-0.417667,-1.948305,-2.095951,-0.223396,-6.283572,12.937136,5.414033
4.160000,0.210327,0.880991,1.465083,0.988489,1.202721,0.084746,1.240847,-1.301359,-0.419636,-2.010210,-1.966033,-0.170477,-6.138441,13.072477,5.203434
4.170000,0.220273,0.892953,1.465910,1.000796,1.189612,0.080542,1.220441,-1.320363,-0.421084,-2.070853,-1.834743,-0.119484,-5.989611,13.181223,4.995835
4.180000,0.230342,0.904783,1.466694,1.012896,1.176318,0.076326,1.199435,-1.338050,-0.422032,-2.129990,-1.702498,-0.070547,-5.837209,13.263388,4.792265
4.190000,0.240530,0.916479,1.467436,1.024783,1.162855,0.072103,1.177846,-1.354411,-0.422501,-2.187586,-1.569564,-0.023622,-5.681360,13.318983,4.593752
4.200000,0.250837,0.928040,1.468136,1.036451,1.149235,0.067878,1.155689,-1.369440,-0.422511,-2.243606,-1.436206,0.021348,-5.522190,13.348021,4.401322
4.210000,0.261259,0.939463,1.468794,1.047895,1.135471,0.063654,1.132979,-1.383133,-0.422083,-2.298070,-1.302497,0.064251,-5.358540,13.345592,4.220486
4.220000,0.271794,0.950749,1.469409,1.059109,1.121576,0.059437,1.109733,-1.395491,-0.421232,-2.350825,-1.169161,0.105583,-5.191980,13.317233,4.047241
4.230000,0.282440,0.961894,1.469983,1.070088,1.107565,0.055231,1.085968,-1.406517,-0.419977,-2.401901,-1.036237,0.145223,-5.022794,13.263558,3.882064
4.240000,0.293195,0.972900,1.470514,1.080827,1.093450,0.051039,1.061700,-1.416217,-0.418333,-2.451273,-0.903973,0.183253,-4.851264,13.185181,3.725436
4.250000,0.304056,0.983763,1.471003,1.091320,1.079245,0.046866,1.036948,-1.424600,-0.416317,-2.498919,-0.772613,0.219761,-4.677675,13.082718,3.577835
4.260000,0.315020,0.994484,1.471451,1.101564,1.064963,0.042714,1.011728,-1.431673,-0.413944,-2.544819,-0.642308,0.254672,-4.502338,12.954551,3.444014
4.270000,0.326086,1.005062,1.471858,1.111553,1.050616,0.038588,0.986058,-1.437450,-0.411228,-2.588960,-0.513498,0.288482,-4.325506,12.803801,3.319655
4.280000,0.337251,1.015496,1.472223,1.121284,1.036218,0.034491,0.959955,-1.441948,-0.408179,-2.631326,-0.386304,0.321096,-4.147460,12.631355,3.204712
4.290000,0.348511,1.025786,1.472548,1.130751,1.021781,0.030425,0.933437,-1.445183,-0.404809,-2.671906,-0.260940,0.352608,-3.968479,12.438100,3.099141
4.300000,0.359865,1.035932,1.472832,1.139951,1.007319,0.026396,0.906523,-1.447174,-0.401130,-2.710693,-0.137609,0.383110,-3.788844,12.224926,3.002899
4.310000,0.371309,1.045933,1.473076,1.148880,0.992842,0.022404,0.879229,-1.447942,-0.397152,-2.747660,-0.016465,0.412564,-3.609369,11.991705,2.919300
4.320000,0.382841,1.055789,1.473280,1.157534,0.978364,0.018453,0.851575,-1.447511,-0.392881,-2.782856,0.102211,0.441376,-3.429735,11.740464,2.844528
4.330000,0.394459,1.065500,1.473445,1.165911,0.963896,0.014547,0.823578,-1.445906,-0.388326,-2.816255,0.218288,0.469482,-3.250159,11.472216,2.778128
4.340000,0.406159,1.075067,1.473571,1.174005,0.949449,0.010688,0.795256,-1.443154,-0.383494,-2.847860,0.331602,0.496965,-3.070854,11.187973,2.719643
4.350000,0.417938,1.084489,1.473659,1.181815,0.935036,0.006878,0.766627,-1.439284,-0.378389,-2.877674,0.441997,0.523900,-2.892036,10.888748,2.668618
4.360000,0.429794,1.093768,1.473709,1.189337,0.920667,0.003121,0.737709,-1.434325,-0.373018,-2.905677,0.549342,0.550279,-2.714580,10.575248,2.626642
4.370000,0.441724,1.102903,1.473721,1.196568,0.906353,-0.000581,0.708519,-1.428308,-0.367385,-2.931939,0.653473,0.576362,-2.537961,10.248827,2.590963
4.380000,0.453724,1.111895,1.473697,1.203506,0.892105,-0.004226,0.679076,-1.421266,-0.361492,-2.956439,0.754279,0.602117,-2.362312,9.910536,2.560874
4.390000,0.465793,1.120745,1.473637,1.210149,0.877931,-0.007810,0.649396,-1.413234,-0.355343,-2.979189,0.851647,0.627596,-2.187769,9.561423,2.535669
4.400000,0.477926,1.129454,1.473541,1.216493,0.863843,-0.011332,0.619498,-1.404245,-0.348941,-3.000199,0.945475,0.652845,-2.014465,9.202540,2.514642
4.410000,0.490122,1.138022,1.473411,1.222538,0.849849,-0.014788,0.589398,-1.394336,-0.342287,-3.019456,1.035658,0.677877,-1.843211,8.835209,2.497684
4.420000,0.502376,1.146451,1.473246,1.228281,0.835959,-0.018177,0.559115,-1.383544,-0.335384,-3.037038,1.122141,0.702781,-1.673383,8.460172,2.483416
4.430000,0.514686,1.154742,1.473047,1.233720,0.822181,-0.021495,0.528663,-1.371906,-0.328232,-3.052929,1.204839,0.727552,-1.505032,8.078446,2.471061
4.440000,0.527050,1.162895,1.472816,1.238853,0.808524,-0.024741,0.498062,-1.359460,-0.320833,-3.067144,1.283691,0.752206,-1.338211,7.691046,2.459837
4.450000,0.539463,1.170913,1.472553,1.243680,0.794995,-0.027911,0.467326,-1.346245,-0.313188,-3.079698,1.358645,0.776750,-1.172970,7.298989,2.448965
4.460000,0.551922,1.178796,1.472258,1.248200,0.781601,-0.031004,0.436473,-1.332301,-0.305298,-3.090584,1.429630,0.801211,-1.009972,6.904008,2.436972
4.470000,0.564425,1.186545,1.471933,1.252410,0.768351,-0.034016,0.405520,-1.317666,-0.297165,-3.099876,1.496684,0.825516,-0.848583,6.506314,2.423857
4.480000,0.576969,1.194163,1.471578,1.256310,0.755250,-0.036946,0.374481,-1.302380,-0.288788,-3.107561,1.559751,0.849682,-0.688781,6.106835,2.408924
4.490000,0.589551,1.201651,1.471194,1.259899,0.742305,-0.039791,0.343374,-1.286484,-0.280171,-3.113657,1.618818,0.873686,-0.530544,5.706500,2.391479
4.500000,0.602166,1.209010,1.470783,1.263177,0.729523,-0.042549,0.312213,-1.270017,-0.271315,-3.118177,1.673881,0.897501,-0.373848,5.306235,2.370828
4.510000,0.614813,1.216242,1.470344,1.266143,0.716907,-0.045217,0.281016,-1.253020,-0.262222,-3.121122,1.724904,0.921155,-0.219083,4.908038,2.344636
4.520000,0.627488,1.223348,1.469879,1.268797,0.704464,-0.047792,0.249796,-1.235533,-0.252893,-3.122545,1.772000,0.944452,-0.065764,4.511638,2.314048
4.530000,0.640188,1.230332,1.469388,1.271139,0.692198,-0.050274,0.218570,-1.217594,-0.243334,-3.122442,1.815145,0.967420,0.086184,4.117833,2.278571
4.540000,0.652910,1.237193,1.468873,1.273169,0.680113,-0.052658,0.187352,-1.199243,-0.233546,-3.120826,1.854368,0.990006,0.236832,3.727420,2.237711
4.550000,0.665650,1.243934,1.468335,1.274886,0.668214,-0.054944,0.156158,-1.180519,-0.223535,-3.117710,1.889707,1.012154,0.386255,3.341197,2.190974
4.560000,0.678407,1.250558,1.467775,1.276292,0.656504,-0.057128,0.125003,-1.161462,-0.213304,-3.113098,1.921155,1.033890,0.534355,2.961318,2.135690
4.570000,0.691175,1.257065,1.467193,1.277386,0.644986,-0.059209,0.093901,-1.142109,-0.202859,-3.107018,1.948892,1.054943,0.681397,2.587057,2.073808
4.580000,0.703953,1.263458,1.466591,1.278170,0.633663,-0.061185,0.062868,-1.122496,-0.192207,-3.099473,1.972917,1.075343,0.827475,2.219047,2.005099
4.590000,0.716738,1.269739,1.465970,1.278644,0.622537,-0.063053,0.031917,-1.102662,-0.181355,-3.090472,1.993296,1.095022,0.972684,1.857918,1.929337
4.600000,0.729525,1.275910,1.465330,1.278809,0.611610,-0.064811,0.001063,-1.082642,-0.170309,-3.080022,2.010100,1.113906,1.117117,1.504304,1.846293
4.610000,0.742313,1.281972,1.464674,1.278666,0.600884,-0.066458,-0.029679,-1.062473,-0.159078,-3.068135,2.023347,1.132013,1.260954,1.160389,1.753460
4.620000,0.755097,1.287928,1.464002,1.278216,0.590361,-0.067992,-0.060295,-1.042187,-0.147672,-3.054809,2.033267,1.149052,1.404194,0.825060,1.653169
4.630000,0.767876,1.293780,1.463314,1.277460,0.580041,-0.069411,-0.090770,-1.021818,-0.136101,-3.040053,2.039879,1.165051,1.546920,0.498759,1.545473
4.640000,0.780646,1.299529,1.462614,1.276401,0.569925,-0.070714,-0.121091,-1.001400,-0.124375,-3.023872,2.043274,1.179937,1.689216,0.181927,1.430423
4.650000,0.793403,1.305179,1.461901,1.275039,0.560013,-0.071898,-0.151243,-0.980963,-0.112506,-3.006270,2.043550,1.193636,1.831165,-0.124996,1.308070
4.660000,0.806145,1.310730,1.461176,1.273376,0.550306,-0.072963,-0.181212,-0.960540,-0.100506,-2.987262,2.040744,1.206154,1.973163,-0.419933,1.176447
4.670000,0.818870,1.316186,1.460442,1.271415,0.540802,-0.073908,-0.210984,-0.940158,-0.088387,-2.966821,2.035114,1.217231,2.114943,-0.704277,1.037871
4.680000,0.831573,1.321547,1.459698,1.269158,0.531502,-0.074731,-0.240544,-0.919847,-0.076166,-2.944964,2.026695,1.226889,2.256551,-0.977789,0.892644
4.690000,0.844252,1.326817,1.458948,1.266605,0.522405,-0.075431,-0.269878,-0.899633,-0.063855,-2.921691,2.015595,1.235063,2.398034,-1.240227,0.741062
4.700000,0.856904,1.331996,1.458190,1.263761,0.513509,-0.076008,-0.298973,-0.879543,-0.051470,-2.897003,2.001928,1.241691,2.539437,-1.491349,0.583426
4.710000,0.869526,1.337087,1.457428,1.260627,0.504813,-0.076460,-0.327814,-0.859603,-0.039026,-2.870920,1.985744,1.246772,2.681268,-1.729341,0.418532
4.720000,0.882115,1.342093,1.456661,1.257205,0.496316,-0.076788,-0.356387,-0.839836,-0.026540,-2.843399,1.967309,1.250111,2.823054,-1.955728,0.248366
4.730000,0.894669,1.347014,1.455892,1.253500,0.488016,-0.076991,-0.384677,-0.820265,-0.014029,-2.814459,1.946669,1.251723,2.964783,-2.170463,0.073410
4.740000,0.907184,1.351854,1.455122,1.249513,0.479910,-0.077069,-0.412671,-0.800910,-0.001511,-2.784103,1.923939,1.251564,3.106445,-2.373498,-0.105853
4.750000,0.919658,1.356613,1.454351,1.245247,0.471997,-0.077021,-0.440354,-0.781792,0.010996,-2.752331,1.899238,1.249594,3.248029,-2.564784,-0.288939
4.760000,0.932088,1.361294,1.453582,1.240707,0.464274,-0.076849,-0.467713,-0.762932,0.023475,-2.719163,1.872628,1.245808,3.390042,-2.742900,-0.476217
4.770000,0.944472,1.365899,1.452815,1.235894,0.456738,-0.076552,-0.494733,-0.744346,0.035906,-2.684554,1.844357,1.240098,3.531890,-2.909338,-0.666248
4.780000,0.956805,1.370430,1.452051,1.230813,0.449386,-0.076131,-0.521399,-0.726050,0.048271,-2.648526,1.814480,1.232476,3.673501,-3.064220,-0.858446
4.790000,0.969087,1.374888,1.451293,1.225468,0.442216,-0.075587,-0.547699,-0.708061,0.060549,-2.611085,1.783111,1.222924,3.814799,-3.207665,-1.052222
4.800000,0.981314,1.379275,1.450540,1.219861,0.435224,-0.074920,-0.573616,-0.690392,0.072723,-2.572232,1.750364,1.211428,3.955710,-3.339794,-1.246991
4.810000,0.993483,1.383593,1.449795,1.213997,0.428407,-0.074133,-0.599139,-0.673058,0.084771,-2.531991,1.716311,1.197990,4.096631,-3.459671,-1.442347
4.820000,1.005593,1.387843,1.449058,1.207879,0.421761,-0.073225,-0.624252,-0.656070,0.096676,-2.490322,1.681160,1.182590,4.236959,-3.568600,-1.637499
4.830000,1.017640,1.392028,1.448331,1.201513,0.415284,-0.072200,-0.648941,-0.639439,0.108417,-2.447254,1.644975,1.165243,4.376561,-3.666831,-1.831836
4.840000,1.029622,1.396150,1.447614,1.194902,0.408971,-0.071058,-0.673192,-0.623174,0.119974,-2.402794,1.607859,1.145958,4.515304,-3.754611,-2.024748
4.850000,1.041537,1.400208,1.446910,1.188051,0.402819,-0.069801,-0.696992,-0.607284,0.131329,-2.356951,1.569916,1.124754,4.653056,-3.832191,-2.215626
4.860000,1.053383,1.404207,1.446219,1.180964,0.396824,-0.068432,-0.720327,-0.591778,0.142463,-2.309750,1.531222,1.101639,4.790025,-3.899156,-2.403453
4.870000,1.065156,1.408145,1.445542,1.173646,0.390982,-0.066952,-0.743182,-0.576662,0.153356,-2.261170,1.491936,1.076678,4.925697,-3.956499,-2.588076
4.880000,1.076855,1.412027,1.444880,1.166102,0.385290,-0.065365,-0.765545,-0.561941,0.163990,-2.211241,1.452123,1.049890,5.059898,-4.004551,-2.768934
4.890000,1.088477,1.415852,1.444235,1.158336,0.379742,-0.063674,-0.787403,-0.547621,0.174348,-2.159978,1.411875,1.021314,5.192455,-4.043641,-2.945468
4.900000,1.100021,1.419622,1.443607,1.150355,0.374336,-0.061879,-0.808741,-0.533705,0.184411,-2.107398,1.371279,0.990996,5.323193,-4.074100,-3.117119
4.910000,1.111484,1.423339,1.442997,1.142163,0.369067,-0.059986,-0.829546,-0.520196,0.194162,-2.053527,1.330410,0.958955,5.452096,-4.095993,-3.282464
4.920000,1.122863,1.427004,1.442407,1.133766,0.363931,-0.057997,-0.849807,-0.507097,0.203584,-1.998370,1.289374,0.925328,5.578813,-4.109948,-3.441911
4.930000,1.134158,1.430618,1.441838,1.125169,0.358924,-0.055916,-0.869510,-0.494409,0.212663,-1.941958,1.248236,0.890138,5.703151,-4.116327,-3.595004
4.940000,1.145366,1.434183,1.441289,1.116378,0.354041,-0.053745,-0.888642,-0.482133,0.221382,-1.884316,1.207071,0.853451,5.824918,-4.115491,-3.741290
4.950000,1.156485,1.437699,1.440763,1.107398,0.349279,-0.051489,-0.907192,-0.470268,0.229727,-1.825469,1.165949,0.815337,5.943920,-4.107805,-3.880312
4.960000,1.167513,1.441169,1.440260,1.098236,0.344634,-0.049152,-0.925147,-0.458813,0.237684,-1.765445,1.124941,0.775825,6.059908,-4.093730,-4.010458
4.970000,1.178449,1.444592,1.439780,1.088897,0.340102,-0.046737,-0.942497,-0.447768,0.245240,-1.704279,1.084099,0.735103,6.172752,-4.073517,-4.132574
4.980000,1.189291,1.447971,1.439325,1.079388,0.335678,-0.044249,-0.959229,-0.437130,0.252382,-1.642001,1.043490,0.693201,6.282266,-4.047515,-4.246348
4.990000,1.200037,1.451306,1.438896,1.069715,0.331358,-0.041691,-0.975333,-0.426897,0.259100,-1.578645,1.003167,0.650205,6.388262,-4.016076,-4.351466
5.000000,1.210685,1.454599,1.438492,1.059884,0.327138,-0.039068,-0.990799,-0.417066,0.265383,-1.514248,0.963185,0.606202,6.490556,-3.979549,-4.447616
5.010000,1.221234,1.457849,1.438114,1.049901,0.323015,-0.036385,-1.005615,-0.407632,0.271220,-1.448839,0.923606,0.561232,6.588742,-3.938647,-4.533189
5.020000,1.231682,1.461059,1.437764,1.039773,0.318984,-0.033645,-1.019772,-0.398592,0.276605,-1.382477,0.884443,0.515511,6.682880,-3.893313,-4.609327
5.030000,1.242029,1.464229,1.437442,1.029508,0.315042,-0.030854,-1.033261,-0.389942,0.281528,-1.315195,0.845754,0.469077,6.772808,-3.843854,-4.675877
5.040000,1.252272,1.467360,1.437147,1.019111,0.311184,-0.028016,-1.046073,-0.381676,0.285984,-1.247035,0.807579,0.422026,6.858369,-3.790575,-4.732684
5.050000,1.262410,1.470453,1.436882,1.008589,0.307407,-0.025136,-1.058199,-0.373788,0.289967,-1.178043,0.769954,0.374457,6.939401,-3.733783,-4.779594
5.060000,1.272443,1.473509,1.436645,0.997949,0.303707,-0.022218,-1.069631,-0.366274,0.293471,-1.108249,0.732934,0.326416,7.015399,-3.674297,-4.815152
5.070000,1.282369,1.476528,1.436437,0.987198,0.300081,-0.019268,-1.080362,-0.359128,0.296494,-1.037735,0.696501,0.278129,7.086592,-3.611848,-4.840665
5.080000,1.292187,1.479510,1.436259,0.976344,0.296524,-0.016290,-1.090384,-0.352342,0.299033,-0.966534,0.660706,0.229637,7.152863,-3.546676,-4.856137
5.090000,1.301896,1.482458,1.436112,0.965393,0.293033,-0.013289,-1.099690,-0.345911,0.301087,-0.894695,0.625576,0.181040,7.214094,-3.479027,-4.861575
5.100000,1.311494,1.485371,1.435994,0.954353,0.289604,-0.010270,-1.108276,-0.339828,0.302654,-0.822269,0.591133,0.132438,7.270168,-3.409143,-4.856985
5.110000,1.320982,1.488250,1.435906,0.943230,0.286235,-0.007238,-1.116134,-0.334086,0.303735,-0.749293,0.557421,0.083886,7.320571,-3.337821,-4.841166
5.120000,1.330359,1.491096,1.435849,0.932032,0.282921,-0.004197,-1.123260,-0.328678,0.304333,-0.675858,0.524407,0.035594,7.365631,-3.264683,-4.815477
5.130000,1.339623,1.493909,1.435822,0.920767,0.279660,-0.001153,-1.129650,-0.323595,0.304448,-0.601999,0.492133,-0.012391,7.405280,-3.189903,-4.780069
5.140000,1.348774,1.496690,1.435826,0.909442,0.276448,0.001891,-1.135299,-0.318832,0.304086,-0.527771,0.460614,-0.059975,7.439448,-3.113657,-4.735098
5.150000,1.357811,1.499438,1.435860,0.898064,0.273283,0.004928,-1.140204,-0.314381,0.303250,-0.453228,0.429864,-0.107062,7.468067,-3.036119,-4.680714
5.160000,1.366735,1.502155,1.435924,0.886640,0.270160,0.007954,-1.144362,-0.310232,0.301946,-0.378415,0.399915,-0.153599,7.490734,-2.957947,-4.616053
5.170000,1.375544,1.504842,1.436019,0.875179,0.267077,0.010965,-1.147772,-0.306380,0.300181,-0.303418,0.370730,-0.199399,7.507756,-2.878775,-4.542411
5.180000,1.384239,1.507497,1.436144,0.863687,0.264031,0.013956,-1.150430,-0.302815,0.297961,-0.228278,0.342342,-0.244418,7.519105,-2.798719,-4.460065
5.190000,1.392818,1.510122,1.436298,0.852173,0.261020,0.016923,-1.152337,-0.299530,0.295295,-0.153054,0.314758,-0.288572,7.524753,-2.717895,-4.369293
5.200000,1.401282,1.512718,1.436482,0.840643,0.258040,0.019861,-1.153491,-0.296517,0.292193,-0.077803,0.287986,-0.331777,7.524672,-2.636421,-4.270372
5.210000,1.409631,1.515283,1.436695,0.829105,0.255088,0.022765,-1.153893,-0.293768,0.288663,-0.002571,0.262046,-0.373984,7.518613,-2.554761,-4.162796
5.220000,1.417864,1.517819,1.436937,0.817568,0.252163,0.025632,-1.153543,-0.291273,0.284717,0.072560,0.236908,-0.415043,7.506798,-2.472640,-4.047722
5.230000,1.425982,1.520327,1.437208,0.806037,0.249262,0.028458,-1.152442,-0.289027,0.280366,0.147545,0.212594,-0.454915,7.489225,-2.390131,-3.925524
5.240000,1.433985,1.522805,1.437506,0.794521,0.246382,0.031238,-1.150593,-0.287019,0.275623,0.222326,0.189107,-0.493531,7.465893,-2.307307,-3.796575
5.250000,1.441873,1.525254,1.437832,0.783028,0.243521,0.033969,-1.147997,-0.285242,0.270500,0.296844,0.166449,-0.530825,7.436803,-2.224242,-3.661250
5.260000,1.449645,1.527675,1.438185,0.771564,0.240677,0.036647,-1.144657,-0.283687,0.265010,0.371045,0.144630,-0.566756,7.401900,-2.141191,-3.519405
5.270000,1.457304,1.530068,1.438565,0.760137,0.237847,0.039268,-1.140577,-0.282346,0.259169,0.444865,0.123633,-0.601218,7.361244,-2.058024,-3.371994
5.280000,1.464848,1.532432,1.438971,0.748755,0.235029,0.041829,-1.135761,-0.281212,0.252991,0.518250,0.103469,-0.634179,7.314840,-1.974791,-3.219453
5.290000,1.472279,1.534768,1.439401,0.737424,0.232222,0.044327,-1.130214,-0.280274,0.246491,0.591143,0.084138,-0.665591,7.262693,-1.891546,-3.062220
5.300000,1.479597,1.537077,1.439857,0.726153,0.229423,0.046758,-1.123940,-0.279526,0.239685,0.663485,0.065638,-0.695409,7.204810,-1.808338,-2.900730
5.310000,1.486803,1.539357,1.440336,0.714948,0.226631,0.049120,-1.116946,-0.278959,0.232588,0.735215,0.047971,-0.723602,7.141330,-1.725238,-2.735195
5.320000,1.493896,1.541609,1.440839,0.703816,0.223843,0.051409,-1.109238,-0.278564,0.225218,0.806287,0.031134,-0.750112,7.072110,-1.642277,-2.566306
5.330000,1.500879,1.543834,1.441364,0.692766,0.221059,0.053623,-1.100823,-0.278333,0.217592,0.876638,0.015125,-0.774918,6.997136,-1.559503,-2.394526
5.340000,1.507752,1.546030,1.441911,0.681802,0.218276,0.055760,-1.091708,-0.278259,0.209726,0.946210,-0.000057,-0.797994,6.916400,-1.476964,-2.220320
5.350000,1.514515,1.548199,1.442479,0.670934,0.215493,0.057817,-1.081901,-0.278332,0.201638,1.014946,-0.014415,-0.819318,6.829890,-1.394710,-2.044153
5.360000,1.521171,1.550340,1.443067,0.660167,0.212709,0.059792,-1.071412,-0.278544,0.193345,1.082776,-0.027957,-0.838870,6.737905,-1.312681,-1.866554
5.370000,1.527719,1.552453,1.443675,0.649508,0.209922,0.061683,-1.060249,-0.278888,0.184866,1.149671,-0.040675,-0.856643,6.640086,-1.231049,-1.687914
5.380000,1.534161,1.554539,1.444301,0.638964,0.207131,0.063489,-1.048422,-0.279355,0.176218,1.215558,-0.052579,-0.872626,6.536385,-1.149874,-1.508691
5.390000,1.540499,1.556596,1.444944,0.628541,0.204334,0.065207,-1.035941,-0.279937,0.167420,1.280379,-0.063674,-0.886816,6.426753,-1.069219,-1.329339
5.400000,1.546733,1.558625,1.445605,0.618247,0.201532,0.066837,-1.022818,-0.280626,0.158488,1.344074,-0.073965,-0.899214,6.311142,-0.989146,-1.150317
5.410000,1.552864,1.560627,1.446281,0.608087,0.198721,0.068377,-1.009064,-0.281414,0.149441,1.406565,-0.083466,-0.909812,6.189939,-0.909536,-0.972418
5.420000,1.558895,1.562600,1.446972,0.598068,0.195903,0.069825,-0.994691,-0.282292,0.140298,1.467832,-0.092167,-0.918651,6.062606,-0.830654,-0.795720
5.430000,1.564826,1.564545,1.447677,0.588195,0.193075,0.071182,-0.979712,-0.283254,0.131074,1.527796,-0.100082,-0.925732,5.929040,-0.752586,-0.620638
5.440000,1.570659,1.566461,1.448395,0.578476,0.190238,0.072447,-0.964139,-0.284292,0.121789,1.586392,-0.107221,-0.931071,5.789141,-0.675415,-0.447587
5.450000,1.576396,1.568349,1.449126,0.568915,0.187389,0.073618,-0.947989,-0.285396,0.112458,1.643557,-0.113594,-0.934692,5.642805,-0.599227,-0.276981
5.460000,1.582038,1.570209,1.449867,0.559518,0.184530,0.074696,-0.931274,-0.286561,0.103101,1.699207,-0.119217,-0.936597,5.490428,-0.523912,-0.109810
5.470000,1.587587,1.572040,1.450619,0.550291,0.181658,0.075680,-0.914010,-0.287778,0.093732,1.753321,-0.124085,-0.936873,5.331350,-0.449772,0.054155
5.480000,1.593045,1.573842,1.451381,0.541239,0.178774,0.076570,-0.896213,-0.289040,0.084369,1.805811,-0.128217,-0.935526,5.165408,-0.376916,0.214568
5.490000,1.598412,1.575615,1.452150,0.532368,0.175877,0.077367,-0.877899,-0.290340,0.075027,1.856606,-0.131627,-0.932594,4.992440,-0.305450,0.371086
5.500000,1.603693,1.577360,1.452928,0.523683,0.172967,0.078071,-0.859086,-0.291670,0.065722,1.905636,-0.134331,-0.928119,4.812282,-0.235485,0.523363
5.510000,1.608887,1.579075,1.453711,0.515188,0.170043,0.078682,-0.839793,-0.293024,0.056470,1.952808,-0.136348,-0.922113,4.625254,-0.166978,0.670306
5.520000,1.613997,1.580760,1.454501,0.506889,0.167106,0.079201,-0.820036,-0.294395,0.047285,1.998094,-0.137683,-0.914695,4.430651,-0.100205,0.812409
5.530000,1.619025,1.582417,1.455295,0.498789,0.164156,0.079628,-0.799837,-0.295776,0.038181,2.041395,-0.138359,-0.905882,4.228253,-0.035293,0.949421
5.540000,1.623973,1.584044,1.456093,0.490893,0.161191,0.079965,-0.779215,-0.297160,0.029171,2.082632,-0.138395,-0.895725,4.017836,0.027632,1.081087
5.550000,1.628844,1.585641,1.456894,0.483206,0.158212,0.080212,-0.758192,-0.298542,0.020270,2.121724,-0.137813,-0.884279,3.799179,0.088443,1.207155
5.560000,1.633638,1.587208,1.457697,0.475731,0.155220,0.080370,-0.736789,-0.299914,0.011490,2.158572,-0.136636,-0.871567,3.572468,0.147074,1.326523
5.570000,1.638359,1.588745,1.458501,0.468471,0.152214,0.080442,-0.715028,-0.301273,0.002843,2.193126,-0.134882,-0.857730,3.337023,0.203331,1.439890
5.580000,1.643008,1.590252,1.459306,0.461431,0.149195,0.080428,-0.692934,-0.302610,-0.005661,2.225282,-0.132578,-0.842790,3.092571,0.257080,1.547108
5.590000,1.647588,1.591729,1.460109,0.454614,0.146162,0.080329,-0.670531,-0.303922,-0.014009,2.254947,-0.129749,-0.826809,2.838843,0.308186,1.648026
5.600000,1.652101,1.593175,1.460912,0.448022,0.143116,0.080148,-0.647844,-0.305204,-0.022194,2.282027,-0.126424,-0.809851,2.575564,0.356517,1.742495
5.610000,1.656550,1.594591,1.461712,0.441658,0.140058,0.079886,-0.624899,-0.306449,-0.030203,2.306414,-0.122626,-0.791947,2.302762,0.401877,1.829510
5.620000,1.660935,1.595976,1.462509,0.435524,0.136987,0.079545,-0.601725,-0.307655,-0.038030,2.328035,-0.118393,-0.773245,2.019830,0.444200,1.909882
5.630000,1.665261,1.597331,1.463303,0.429624,0.133905,0.079126,-0.578348,-0.308816,-0.045665,2.346776,-0.113753,-0.753772,1.726460,0.483361,1.983568
5.640000,1.669529,1.598654,1.464092,0.423958,0.130811,0.078632,-0.554799,-0.309928,-0.053103,2.362529,-0.108737,-0.733596,1.422343,0.519233,2.050522
5.650000,1.673741,1.599947,1.464875,0.418528,0.127707,0.078065,-0.531108,-0.310989,-0.060335,2.375186,-0.103380,-0.712784,1.107170,0.551689,2.110701
5.660000,1.677900,1.601208,1.465653,0.413336,0.124592,0.077426,-0.507306,-0.311995,-0.067356,2.384626,-0.097707,-0.691374,0.780839,0.580402,2.163285
5.670000,1.682008,1.602439,1.466424,0.408383,0.121467,0.076718,-0.483427,-0.312943,-0.074161,2.390754,-0.091775,-0.669506,0.442810,0.605472,2.209100
5.680000,1.686068,1.603638,1.467187,0.403668,0.118333,0.075944,-0.459503,-0.313830,-0.080745,2.393442,-0.085610,-0.647214,0.092750,0.626796,2.248196
5.690000,1.690083,1.604805,1.467942,0.399193,0.115191,0.075104,-0.435570,-0.314654,-0.087104,2.392568,-0.079252,-0.624565,-0.269675,0.644273,2.280625
5.700000,1.694053,1.605942,1.468689,0.394956,0.112040,0.074202,-0.411664,-0.315414,-0.093235,2.388006,-0.072738,-0.601624,-0.644799,0.657800,2.306436
5.710000,1.697982,1.607046,1.469426,0.390959,0.108882,0.073240,-0.387822,-0.316108,-0.099136,2.379620,-0.066095,-0.578433,-1.032748,0.666920,2.325067
5.720000,1.701873,1.608119,1.470153,0.387200,0.105718,0.072220,-0.364084,-0.316736,-0.104803,2.367297,-0.059397,-0.555117,-1.434089,0.671930,2.337257
5.730000,1.705727,1.609160,1.470870,0.383677,0.102548,0.071145,-0.340490,-0.317296,-0.110238,2.350893,-0.052670,-0.531709,-1.849180,0.672772,2.343131
5.740000,1.709547,1.610170,1.471576,0.380389,0.099373,0.070016,-0.317081,-0.317789,-0.115438,2.330267,-0.045956,-0.508275,-2.278380,0.669387,2.342816
5.750000,1.713336,1.611148,1.472270,0.377335,0.096192,0.068837,-0.293899,-0.318216,-0.120403,2.305277,-0.039297,-0.484873,-2.722048,0.661717,2.336436
5.760000,1.717095,1.612094,1.472953,0.374510,0.093008,0.067609,-0.270990,-0.318575,-0.125135,2.275761,-0.032714,-0.461550,-3.180154,0.649147,2.323734
5.770000,1.720827,1.613008,1.473622,0.371914,0.089821,0.066335,-0.248399,-0.318870,-0.129635,2.241606,-0.026304,-0.438401,-3.653494,0.632242,2.305266
5.780000,1.724534,1.613890,1.474279,0.369541,0.086631,0.065017,-0.226174,-0.319102,-0.133904,2.202639,-0.020084,-0.415464,-4.142473,0.611014,2.281204
5.790000,1.728218,1.614741,1.474923,0.367389,0.083439,0.063658,-0.204363,-0.319273,-0.137945,2.158703,-0.014098,-0.392795,-4.647499,0.585471,2.251721
5.800000,1.731882,1.615559,1.475552,0.365452,0.080246,0.062259,-0.183017,-0.319385,-0.141761,2.109634,-0.008389,-0.370447,-5.168977,0.555624,2.216990
5.810000,1.735528,1.616346,1.476168,0.363727,0.077052,0.060823,-0.162189,-0.319441,-0.145355,2.055230,-0.002966,-0.348467,-5.706388,0.520629,2.177069
5.820000,1.739158,1.617100,1.476769,0.362207,0.073857,0.059353,-0.141931,-0.319445,-0.148732,1.995407,0.002048,-0.326917,-6.261177,0.481454,2.132259
5.830000,1.742773,1.617823,1.477355,0.360886,0.070663,0.057849,-0.122299,-0.319402,-0.151895,1.929947,0.006650,-0.305838,-6.833866,0.438213,2.082746
5.840000,1.746376,1.618513,1.477925,0.359758,0.067469,0.056315,-0.103351,-0.319314,-0.154850,1.858668,0.010799,-0.285277,-7.424975,0.391020,2.028715
5.850000,1.749969,1.619172,1.478481,0.358817,0.064277,0.054753,-0.085146,-0.319187,-0.157602,1.781384,0.014457,-0.265278,-8.035024,0.339989,1.970354
5.860000,1.753553,1.619799,1.479020,0.358053,0.061086,0.053164,-0.067744,-0.319027,-0.160158,1.697903,0.017586,-0.245884,-8.664532,0.285235,1.907848
5.870000,1.757130,1.620394,1.479544,0.357459,0.057896,0.051550,-0.051209,-0.318837,-0.162522,1.608027,0.020150,-0.227134,-9.314020,0.226871,1.841384
5.880000,1.760703,1.620957,1.480051,0.357026,0.054709,0.049914,-0.035606,-0.318626,-0.164703,1.511554,0.022112,-0.209069,-9.984009,0.165013,1.771148
5.890000,1.764271,1.621488,1.480542,0.356743,0.051524,0.048257,-0.021001,-0.318397,-0.166706,1.408277,0.023439,-0.191723,-10.675018,0.099774,1.697327
5.900000,1.767838,1.621987,1.481016,0.356602,0.048341,0.046581,-0.007463,-0.318159,-0.168540,1.297982,0.024097,-0.175133,-11.387567,0.031269,1.620106
5.910000,1.771404,1.622455,1.481474,0.356590,0.045161,0.044887,0.004935,-0.317918,-0.170211,1.180452,0.024054,-0.159332,-12.122176,-0.040388,1.539672
5.920000,1.774970,1.622891,1.481914,0.356697,0.041983,0.043177,0.016121,-0.317680,-0.171729,1.055463,0.023279,-0.144350,-12.879366,-0.115084,1.456212
5.930000,1.778538,1.623295,1.482337,0.356908,0.038807,0.041453,0.026018,-0.317455,-0.173101,0.922788,0.021742,-0.130217,-13.659657,-0.192702,1.369912
5.940000,1.782109,1.623667,1.482743,0.357212,0.035634,0.039715,0.034550,-0.317248,-0.174336,0.782191,0.019416,-0.116961,-14.463568,-0.273131,1.280958
5.950000,1.785683,1.624007,1.483132,0.357595,0.032462,0.037966,0.041635,-0.317069,-0.175443,0.633436,0.016271,-0.104606,-15.291620,-0.356254,1.189536
5.960000,1.789261,1.624316,1.483502,0.358040,0.029292,0.036207,0.047191,-0.316926,-0.176431,0.476277,0.012282,-0.093177,-16.144334,-0.441958,1.095833
5.970000,1.792843,1.624593,1.483856,0.358533,0.026123,0.034438,0.051132,-0.316826,-0.177310,0.310465,0.007423,-0.082696,-17.022228,-0.530129,1.000034
5.980000,1.796431,1.624838,1.484191,0.359057,0.022955,0.032661,0.053370,-0.316780,-0.178089,0.135747,0.001671,-0.073183,-17.925823,-0.620652,0.902328
5.990000,1.800025,1.625052,1.484509,0.359594,0.019788,0.030877,0.053816,-0.316796,-0.178777,-0.048139,-0.004997,-0.064656,-18.855640,-0.713413,0.802898
6.000000,1.803623,1.625234,1.484809,0.360127,0.016619,0.029086,0.052376,-0.316883,-0.179385,-0.241455,-0.012604,-0.057130,-19.812198,-0.808297,0.701933
