time,x,y,z,vx,vy,vz,ax,ay,az,jx,jy,jz,sx,sy,sz
0.000000,-1.556879,-2.001903,1.494345,-0.016436,0.001930,-0.006908,0.271893,0.158274,-0.001984,-6.910988,-3.823576,0.048209,189.675191,72.059950,-8.672172
0.010000,-1.557031,-2.001876,1.494275,-0.014032,0.003333,-0.006926,0.211926,0.123509,-0.001920,-5.116102,-3.142180,-0.033840,169.553083,64.322501,-7.747973
0.020000,-1.557161,-2.001837,1.494206,-0.012141,0.004422,-0.006949,0.168925,0.095182,-0.002632,-3.515002,-2.535105,-0.106951,150.908153,57.191353,-6.884110
0.030000,-1.557275,-2.001789,1.494136,-0.010603,0.005256,-0.006981,0.141028,0.072579,-0.004032,-2.093218,-1.996417,-0.171717,133.679619,50.640910,-6.078437
0.040000,-1.557374,-2.001733,1.494066,-0.009276,0.005890,-0.007031,0.126510,0.055045,-0.006040,-0.836891,-1.520437,-0.228707,117.806700,44.645576,-5.328806
0.050000,-1.557460,-2.001671,1.493996,-0.008034,0.006372,-0.007104,0.123783,0.041980,-0.008582,0.267232,-1.101741,-0.278472,103.228616,39.179755,-4.633071
0.060000,-1.557535,-2.001606,1.493924,-0.006766,0.006743,-0.007204,0.131389,0.032837,-0.011587,1.231795,-0.735162,-0.321541,89.884583,34.217850,-3.989085
0.070000,-1.557595,-2.001537,1.493852,-0.005376,0.007040,-0.007337,0.147994,0.027119,-0.014992,2.068835,-0.415789,-0.358419,77.713822,29.734267,-3.394701
0.080000,-1.557641,-2.001465,1.493777,-0.003780,0.007295,-0.007505,0.172379,0.024379,-0.018736,2.789780,-0.138967,-0.389593,66.655551,25.703410,-2.847772
0.090000,-1.557670,-2.001391,1.493701,-0.001906,0.007536,-0.007713,0.203438,0.024213,-0.022766,3.405451,0.099703,-0.415526,56.648987,22.099681,-2.346151
0.100000,-1.557678,-2.001314,1.493623,0.000308,0.007787,-0.007961,0.240171,0.026260,-0.027031,3.926063,0.304365,-0.436660,47.633351,18.897486,-1.887691
0.110000,-1.557663,-2.001235,1.493542,0.002913,0.008068,-0.008254,0.281675,0.030200,-0.031485,4.361219,0.478906,-0.453416,39.547860,16.071228,-1.470247
0.120000,-1.557619,-2.001153,1.493458,0.005954,0.008396,-0.008592,0.327141,0.035750,-0.036086,4.719918,0.626957,-0.466194,32.331733,13.595312,-1.091669
0.130000,-1.557542,-2.001067,1.493370,0.009467,0.008787,-0.008976,0.375846,0.042662,-0.040797,5.010549,0.751894,-0.475372,25.924190,11.444142,-0.749813
0.140000,-1.557428,-2.000977,1.493278,0.013480,0.009253,-0.009408,0.427151,0.050721,-0.045583,5.240894,0.856837,-0.481306,20.264447,9.592121,-0.442531
0.150000,-1.557271,-2.000881,1.493182,0.018016,0.009805,-0.009888,0.480487,0.059741,-0.050413,5.418128,0.944649,-0.484331,15.291725,8.013654,-0.167676
0.160000,-1.557065,-2.000780,1.493080,0.023095,0.010451,-0.010416,0.535358,0.069565,-0.055261,5.548816,1.017937,-0.484760,10.945241,6.683145,0.076899
0.170000,-1.556807,-2.000672,1.492973,0.028727,0.011198,-0.010993,0.591329,0.080060,-0.060101,5.638917,1.079053,-0.482887,7.164215,5.574998,0.293340
0.180000,-1.556489,-2.000556,1.492860,0.034924,0.012054,-0.011618,0.648019,0.091113,-0.064912,5.693783,1.130092,-0.478980,3.887865,4.663618,0.483794
0.190000,-1.556106,-2.000431,1.492741,0.041689,0.013022,-0.012291,0.705103,0.102634,-0.069674,5.718154,1.172896,-0.473290,1.055409,3.923407,0.650409
0.200000,-1.555653,-2.000295,1.492614,0.049026,0.014108,-0.013011,0.762295,0.114549,-0.074372,5.716168,1.209046,-0.466044,-1.393934,3.328771,0.795330
0.210000,-1.555124,-2.000148,1.492480,0.056931,0.015313,-0.013778,0.819463,0.126842,-0.078991,5.701814,1.244034,-0.457449,-3.785241,2.748953,0.920699
0.220000,-1.554513,-1.999988,1.492338,0.065410,0.016644,-0.014591,0.876256,0.139412,-0.083517,5.653242,1.269077,-0.447688,-5.882636,2.276395,1.028670
0.230000,-1.553814,-1.999815,1.492188,0.074455,0.018102,-0.015448,0.932463,0.152210,-0.087941,5.585046,1.289877,-0.436926,-7.714535,1.898376,1.121390
0.240000,-1.553022,-1.999626,1.492029,0.084057,0.019689,-0.016349,0.987900,0.165198,-0.092253,5.499741,1.307317,-0.425304,-9.309358,1.602178,1.201006
0.250000,-1.552131,-1.999421,1.491861,0.094209,0.021407,-0.017293,1.042408,0.178347,-0.096445,5.399555,1.322151,-0.412942,-10.695523,1.375082,1.269667
0.260000,-1.551136,-1.999197,1.491683,0.104900,0.023256,-0.018278,1.095899,0.191657,-0.100512,5.291150,1.337079,-0.400131,-12.020638,1.152037,1.334336
0.270000,-1.550031,-1.998955,1.491495,0.116122,0.025239,-0.019303,1.148190,0.205082,-0.104445,5.165018,1.347695,-0.386495,-13.179337,0.979063,1.391755
0.280000,-1.548812,-1.998692,1.491297,0.127860,0.027358,-0.020366,1.199164,0.218606,-0.108240,5.028072,1.356806,-0.372315,-14.185445,0.849848,1.443482
0.290000,-1.547472,-1.998407,1.491088,0.140100,0.029612,-0.021467,1.248720,0.232215,-0.111890,4.881771,1.364817,-0.357639,-15.052784,0.758082,1.491074
0.300000,-1.546008,-1.998099,1.490868,0.152829,0.032002,-0.022603,1.296772,0.245900,-0.115391,4.727433,1.372071,-0.342502,-15.795180,0.697452,1.536090
0.310000,-1.544414,-1.997767,1.490636,0.166030,0.034530,-0.023774,1.343269,0.259666,-0.118742,4.568324,1.379865,-0.327203,-16.479150,0.635971,1.587222
0.320000,-1.542686,-1.997408,1.490392,0.179688,0.037196,-0.024978,1.388118,0.273495,-0.121933,4.400548,1.386009,-0.311077,-17.059371,0.596148,1.638020
0.330000,-1.540819,-1.997023,1.490136,0.193787,0.040000,-0.026212,1.431262,0.287385,-0.124961,4.227458,1.391850,-0.294441,-17.543214,0.574816,1.689167
0.340000,-1.538809,-1.996608,1.489868,0.208308,0.042943,-0.027476,1.472652,0.301332,-0.127821,4.049981,1.397557,-0.277290,-17.938052,0.568809,1.741350
0.350000,-1.536651,-1.996163,1.489587,0.223234,0.046027,-0.028768,1.512250,0.315336,-0.130505,3.868969,1.403267,-0.259609,-18.251255,0.574958,1.795251
0.360000,-1.534343,-1.995687,1.489292,0.238546,0.049250,-0.030086,1.550032,0.329403,-0.133014,3.686115,1.409581,-0.241648,-18.513209,0.577584,1.858392
0.370000,-1.531879,-1.995178,1.488985,0.254228,0.052615,-0.031428,1.585964,0.343528,-0.135336,3.499965,1.415401,-0.222739,-18.705454,0.587566,1.923783
0.380000,-1.529257,-1.994634,1.488664,0.270259,0.056121,-0.032792,1.620026,0.357712,-0.137466,3.312223,1.421352,-0.203165,-18.832542,0.603267,1.991272
0.390000,-1.526473,-1.994055,1.488329,0.286622,0.059769,-0.034176,1.652206,0.371956,-0.139397,3.123516,1.427480,-0.182907,-18.899028,0.623055,2.060706
0.400000,-1.523524,-1.993438,1.487980,0.303297,0.063560,-0.035579,1.682495,0.386262,-0.141122,2.934429,1.433821,-0.161945,-18.909463,0.645292,2.131933
0.410000,-1.520406,-1.992783,1.487617,0.320266,0.067495,-0.036998,1.710899,0.400635,-0.142636,2.745904,1.440634,-0.140448,-18.878647,0.662154,2.209489
0.420000,-1.517117,-1.992088,1.487240,0.337509,0.071573,-0.038431,1.737415,0.415075,-0.143929,2.557474,1.447340,-0.117962,-18.799634,0.678955,2.287958
0.430000,-1.513655,-1.991351,1.486849,0.355008,0.075796,-0.039876,1.762052,0.429583,-0.144992,2.370061,1.454210,-0.094689,-18.675722,0.694818,2.366612
0.440000,-1.510017,-1.990572,1.486443,0.372744,0.080165,-0.041330,1.784821,0.444160,-0.145820,2.184098,1.461230,-0.070631,-18.510209,0.708867,2.444724
0.450000,-1.506199,-1.989747,1.486022,0.390698,0.084680,-0.042791,1.805740,0.458808,-0.146402,1.999985,1.468378,-0.045798,-18.306395,0.720225,2.521567
0.460000,-1.502202,-1.988877,1.485587,0.408852,0.089341,-0.044257,1.824831,0.473529,-0.146734,1.818289,1.475752,-0.020275,-18.072676,0.724752,2.598149
0.470000,-1.498022,-1.987960,1.485137,0.427188,0.094151,-0.045725,1.842114,0.488323,-0.146805,1.638867,1.483006,0.006077,-17.806629,0.725234,2.671795
0.480000,-1.493658,-1.986994,1.484672,0.445689,0.099108,-0.047192,1.857617,0.503189,-0.146610,1.462255,1.490242,0.033148,-17.510928,0.721194,2.741565
0.490000,-1.489108,-1.985977,1.484193,0.464335,0.104215,-0.048656,1.871370,0.518128,-0.146140,1.288738,1.497413,0.060893,-17.188246,0.712157,2.806520
0.500000,-1.484370,-1.984909,1.483699,0.483110,0.109471,-0.050114,1.883403,0.533137,-0.145390,1.118571,1.504467,0.089259,-16.841260,0.697644,2.865720
0.510000,-1.479445,-1.983788,1.483191,0.501997,0.114878,-0.051563,1.893754,0.548217,-0.144353,0.952117,1.511424,0.118228,-16.475982,0.675222,2.917128
0.520000,-1.474330,-1.982611,1.482668,0.520980,0.120435,-0.053000,1.902458,0.563365,-0.143024,0.789265,1.518038,0.147626,-16.091338,0.646610,2.961036
0.530000,-1.469025,-1.981378,1.482131,0.540041,0.126145,-0.054423,1.909553,0.578577,-0.141399,0.630347,1.524334,0.177421,-15.689594,0.611571,2.996638
0.540000,-1.463529,-1.980088,1.481579,0.559166,0.132007,-0.055827,1.915079,0.593850,-0.139474,0.475523,1.530247,0.207528,-15.273016,0.569868,3.023129
0.550000,-1.457842,-1.978738,1.481014,0.578338,0.138022,-0.057211,1.919077,0.609180,-0.137248,0.324929,1.535709,0.237851,-14.843870,0.521264,3.039703
0.560000,-1.451962,-1.977327,1.480435,0.597542,0.144191,-0.058571,1.921593,0.624563,-0.134716,0.178800,1.540703,0.268411,-14.407465,0.464146,3.042396
0.570000,-1.445891,-1.975853,1.479843,0.616765,0.150514,-0.059905,1.922668,0.639992,-0.131879,0.036944,1.545029,0.298802,-13.962651,0.399819,3.033948
0.580000,-1.439627,-1.974316,1.479237,0.635991,0.156991,-0.061208,1.922347,0.655461,-0.128740,-0.100431,1.548675,0.329052,-13.511317,0.328217,3.013940
0.590000,-1.433171,-1.972713,1.478619,0.655207,0.163623,-0.062478,1.920675,0.670963,-0.125299,-0.233267,1.551569,0.359041,-13.055358,0.249270,2.981953
0.600000,-1.426523,-1.971043,1.477988,0.674400,0.170410,-0.063713,1.917697,0.686490,-0.121560,-0.361529,1.553636,0.388649,-12.596666,0.162909,2.937568
0.610000,-1.419683,-1.969304,1.477345,0.693557,0.177353,-0.064909,1.913461,0.702033,-0.117526,-0.485067,1.554845,0.417914,-12.140438,0.067980,2.876223
0.620000,-1.412652,-1.967495,1.476690,0.712665,0.184451,-0.066063,1.908011,0.717584,-0.113204,-0.604192,1.555019,0.446316,-11.684856,-0.034367,2.802149
0.630000,-1.405430,-1.965615,1.476024,0.731713,0.191704,-0.067172,1.901392,0.733130,-0.108603,-0.718771,1.554133,0.473915,-11.231410,-0.144068,2.715436
0.640000,-1.398018,-1.963661,1.475347,0.750689,0.199113,-0.068234,1.893650,0.748663,-0.103729,-0.828833,1.552114,0.500583,-10.781587,-0.261060,2.616173
0.650000,-1.390416,-1.961632,1.474659,0.769583,0.206678,-0.069246,1.884830,0.764169,-0.098594,-0.934420,1.548888,0.526197,-10.336875,-0.385278,2.504447
0.660000,-1.382627,-1.959527,1.473962,0.788382,0.214397,-0.070205,1.874978,0.779636,-0.093208,-1.035449,1.544419,0.550792,-9.902390,-0.517550,2.376292
0.670000,-1.374649,-1.957343,1.473255,0.807079,0.222270,-0.071109,1.864136,0.795052,-0.087583,-1.132331,1.538553,0.573864,-9.475547,-0.656811,2.236348
0.680000,-1.366485,-1.955081,1.472540,0.825662,0.230298,-0.071956,1.852346,0.810403,-0.081735,-1.224988,1.531261,0.595481,-9.057390,-0.802888,2.085202
0.690000,-1.358136,-1.952737,1.471816,0.844123,0.238478,-0.072743,1.839650,0.825673,-0.075679,-1.313512,1.522474,0.615533,-8.648964,-0.955607,1.923438
0.700000,-1.349603,-1.950311,1.471085,0.862452,0.246811,-0.073469,1.826089,0.840847,-0.069430,-1.398004,1.512127,0.633917,-8.251311,-1.114796,1.751641
0.710000,-1.340888,-1.947800,1.470347,0.880642,0.255295,-0.074131,1.811704,0.855910,-0.063005,-1.478429,1.500186,0.650658,-7.869217,-1.281015,1.567280
0.720000,-1.331991,-1.945204,1.469603,0.898683,0.263928,-0.074728,1.796533,0.870845,-0.056423,-1.555262,1.486519,0.665373,-7.499527,-1.453267,1.374440
0.730000,-1.322915,-1.942521,1.468853,0.916570,0.272711,-0.075259,1.780611,0.885635,-0.049704,-1.628463,1.471101,0.678122,-7.142825,-1.631289,1.174085
0.740000,-1.313660,-1.939750,1.468098,0.934293,0.281641,-0.075722,1.763975,0.900261,-0.042867,-1.698164,1.453875,0.688833,-6.799699,-1.814816,0.967184
0.750000,-1.304229,-1.936888,1.467339,0.951847,0.290716,-0.076116,1.746659,0.914706,-0.035934,-1.764504,1.434787,0.697447,-6.470733,-2.003586,0.754702
0.760000,-1.294624,-1.933935,1.466576,0.969224,0.299934,-0.076440,1.728697,0.928951,-0.028925,-1.827489,1.413811,0.703977,-6.160031,-2.197948,0.535946
0.770000,-1.284845,-1.930889,1.465810,0.986419,0.309294,-0.076694,1.710119,0.942976,-0.021862,-1.887597,1.390840,0.708228,-5.864231,-2.396951,0.313747
0.780000,-1.274896,-1.927748,1.465042,1.003425,0.318793,-0.076878,1.690955,0.956761,-0.014768,-1.944823,1.365858,0.710245,-5.583487,-2.600257,0.089275
0.790000,-1.264778,-1.924512,1.464273,1.020236,0.328428,-0.076990,1.671232,0.970286,-0.007665,-1.999318,1.338822,0.710010,-5.317955,-2.807526,-0.136300
0.800000,-1.254492,-1.921179,1.463503,1.036848,0.338198,-0.077031,1.650977,0.983530,-0.000575,-2.051234,1.309695,0.707519,-5.067790,-3.018421,-0.361807
0.810000,-1.244041,-1.917748,1.462732,1.053254,0.348098,-0.077001,1.630217,0.996473,0.006478,-2.100607,1.278464,0.702780,-4.836128,-3.233144,-0.586123
0.820000,-1.233428,-1.914217,1.461963,1.069450,0.358126,-0.076902,1.608973,1.009092,0.013473,-2.147874,1.245047,0.695807,-4.619777,-3.450749,-0.808024
0.830000,-1.222653,-1.910585,1.461194,1.085432,0.368278,-0.076732,1.587266,1.021367,0.020387,-2.193053,1.209441,0.686631,-4.418528,-3.670832,-1.026336
0.840000,-1.211720,-1.906851,1.460428,1.101194,0.378552,-0.076494,1.565118,1.033274,0.027198,-2.236294,1.171623,0.675296,-4.232171,-3.892987,-1.239883
0.850000,-1.200630,-1.903014,1.459665,1.116733,0.388943,-0.076189,1.542546,1.044792,0.033886,-2.277746,1.131576,0.661853,-4.060495,-4.116809,-1.447488
0.860000,-1.189386,-1.899072,1.458905,1.132044,0.399446,-0.075817,1.519569,1.055898,0.040428,-2.317467,1.089303,0.646312,-3.905462,-4.342412,-1.646521
0.870000,-1.177990,-1.895024,1.458149,1.147123,0.410059,-0.075381,1.496202,1.066570,0.046806,-2.355805,1.044748,0.628885,-3.764424,-4.568810,-1.837439
0.880000,-1.166444,-1.890870,1.457397,1.161966,0.420776,-0.074881,1.472458,1.076785,0.053000,-2.392800,0.997926,0.609594,-3.636907,-4.795534,-2.019244
0.890000,-1.154751,-1.886609,1.456651,1.176571,0.431593,-0.074321,1.448350,1.086521,0.058992,-2.428586,0.948838,0.588534,-3.522434,-5.022117,-2.190938
0.900000,-1.142914,-1.882238,1.455911,1.190932,0.442505,-0.073702,1.423890,1.095755,0.064765,-2.463291,0.897486,0.565812,-3.420529,-5.248090,-2.351524
0.910000,-1.130933,-1.877758,1.455177,1.205047,0.453507,-0.073027,1.399088,1.104464,0.070302,-2.496985,0.843900,0.541439,-3.332024,-5.473499,-2.497369
0.920000,-1.118813,-1.873168,1.454451,1.218913,0.464593,-0.072297,1.373953,1.112625,0.075589,-2.529911,0.788044,0.515790,-3.254975,-5.697299,-2.630433
0.930000,-1.106556,-1.868466,1.453732,1.232525,0.475757,-0.071516,1.348492,1.120217,0.080613,-2.562121,0.729961,0.488876,-3.188748,-5.918959,-2.750040
0.940000,-1.094164,-1.863652,1.453021,1.245882,0.486995,-0.070686,1.322712,1.127217,0.085363,-2.593720,0.669674,0.460836,-3.132705,-6.137949,-2.855516
0.950000,-1.081639,-1.858726,1.452318,1.258979,0.498300,-0.069810,1.296619,1.133603,0.089827,-2.624807,0.607212,0.431815,-3.086212,-6.353737,-2.946186
0.960000,-1.068985,-1.853686,1.451625,1.271813,0.509665,-0.068890,1.270218,1.139354,0.093995,-2.655453,0.542630,0.401829,-3.049156,-6.566260,-3.017981
0.970000,-1.056204,-1.848532,1.450940,1.284382,0.521084,-0.067931,1.243511,1.144449,0.097861,-2.685794,0.475922,0.371356,-3.020313,-6.774461,-3.074034
0.980000,-1.043298,-1.843264,1.450266,1.296682,0.532552,-0.066934,1.216503,1.148866,0.101420,-2.715885,0.407157,0.340402,-2.998984,-6.977755,-3.114087
0.990000,-1.030271,-1.837881,1.449602,1.308711,0.544059,-0.065903,1.189194,1.152585,0.104668,-2.745796,0.336386,0.309129,-2.984468,-7.175551,-3.137880
1.000000,-1.017125,-1.832383,1.448948,1.320465,0.555601,-0.064842,1.161587,1.155587,0.107602,-2.775594,0.263666,0.277699,-2.976066,-7.367264,-3.145154
1.010000,-1.003863,-1.826769,1.448305,1.331942,0.567169,-0.063752,1.133683,1.157852,0.110220,-2.805342,0.189074,0.246134,-2.972924,-7.552594,-3.131918
1.020000,-0.990487,-1.821040,1.447673,1.343138,0.578755,-0.062638,1.105480,1.159363,0.112526,-2.835075,0.112652,0.214950,-2.974514,-7.730628,-3.102100
1.030000,-0.977001,-1.815194,1.447052,1.354050,0.590353,-0.061503,1.076981,1.160100,0.114521,-2.864846,0.034488,0.184146,-2.980156,-7.900742,-3.055899
1.040000,-0.963407,-1.809233,1.446443,1.364676,0.601955,-0.060349,1.048183,1.160047,0.116210,-2.894690,-0.045335,0.153886,-2.989169,-8.062314,-2.993510
1.050000,-0.949708,-1.803155,1.445845,1.375013,0.613552,-0.059180,1.019087,1.159188,0.117601,-2.924638,-0.126728,0.124329,-3.000872,-8.214719,-2.915132
1.060000,-0.935908,-1.796962,1.445260,1.385057,0.625136,-0.057998,0.989690,1.157507,0.118698,-2.954737,-0.209599,0.095492,-3.014003,-8.357279,-2.817340
1.070000,-0.922008,-1.790652,1.444686,1.394806,0.636699,-0.056806,0.959992,1.154991,0.119514,-2.984949,-0.293841,0.067871,-3.028533,-8.489433,-2.704397
1.080000,-0.908013,-1.784228,1.444123,1.404256,0.648233,-0.055608,0.929990,1.151626,0.120060,-3.015310,-0.379350,0.041453,-3.043852,-8.610564,-2.576943
1.090000,-0.893924,-1.777688,1.443573,1.413405,0.659729,-0.054406,0.899685,1.147400,0.120348,-3.045826,-0.466014,0.016379,-3.059352,-8.720054,-2.435620
1.100000,-0.879746,-1.771033,1.443035,1.422249,0.671178,-0.053202,0.869073,1.142303,0.120392,-3.076496,-0.553711,-0.007215,-3.074422,-8.817286,-2.281068
1.110000,-0.865480,-1.764264,1.442509,1.430785,0.682572,-0.051999,0.838154,1.136323,0.120207,-3.107345,-0.642340,-0.029323,-3.087609,-8.901041,-2.110843
1.120000,-0.851131,-1.757382,1.441995,1.439011,0.693901,-0.050799,0.806926,1.129453,0.119812,-3.138281,-0.731714,-0.049532,-3.099250,-8.971379,-1.929050
1.130000,-0.836701,-1.750387,1.441493,1.446923,0.705158,-0.049603,0.775388,1.121686,0.119223,-3.169323,-0.821721,-0.067869,-3.108839,-9.027757,-1.736706
1.140000,-0.822194,-1.743279,1.441003,1.454517,0.716332,-0.048415,0.743539,1.113017,0.118461,-3.200449,-0.912221,-0.084234,-3.115869,-9.069633,-1.534830
1.150000,-0.807612,-1.736060,1.440525,1.461792,0.727415,-0.047235,0.711379,1.103441,0.117545,-3.231630,-1.003064,-0.098537,-3.119835,-9.096463,-1.324441
1.160000,-0.792959,-1.728731,1.440059,1.468744,0.738398,-0.046064,0.678906,1.092955,0.116496,-3.262874,-1.094151,-0.110783,-3.119202,-9.106370,-1.104415
1.170000,-0.778238,-1.721293,1.439604,1.475369,0.749271,-0.044905,0.646122,1.081558,0.115337,-3.294047,-1.185198,-0.120700,-3.114617,-9.100309,-0.878176
1.180000,-0.763453,-1.713746,1.439160,1.481665,0.760026,-0.043758,0.613025,1.069251,0.114090,-3.325152,-1.276102,-0.128330,-3.105699,-9.077901,-0.647005
1.190000,-0.748606,-1.706093,1.438729,1.487629,0.770653,-0.042624,0.579619,1.056037,0.112778,-3.356145,-1.366700,-0.133628,-3.092069,-9.038765,-0.412182
1.200000,-0.733701,-1.698334,1.438308,1.493257,0.781144,-0.041503,0.545903,1.041919,0.111425,-3.386977,-1.456821,-0.136565,-3.073344,-8.982523,-0.174991
1.210000,-0.718742,-1.690470,1.437898,1.498546,0.791489,-0.040395,0.511880,1.026902,0.110054,-3.417640,-1.546376,-0.137156,-3.047970,-8.906662,0.064098
1.220000,-0.703731,-1.682504,1.437500,1.503493,0.801679,-0.039301,0.477551,1.010994,0.108690,-3.447969,-1.634990,-0.135320,-3.016885,-8.813196,0.302894
1.230000,-0.688673,-1.674437,1.437112,1.508096,0.811706,-0.038221,0.442921,0.994205,0.107356,-3.477958,-1.722581,-0.131104,-2.979852,-8.702007,0.540020
1.240000,-0.673571,-1.666271,1.436735,1.512351,0.821560,-0.037154,0.407993,0.976546,0.106076,-3.507546,-1.808971,-0.124530,-2.936635,-8.572976,0.774093
1.250000,-0.658427,-1.658007,1.436369,1.516255,0.831234,-0.036099,0.372772,0.958030,0.104873,-3.536669,-1.893981,-0.115637,-2.886997,-8.425984,1.003735
1.260000,-0.643247,-1.649647,1.436013,1.519805,0.840718,-0.035056,0.337261,0.938671,0.103771,-3.565316,-1.977553,-0.104442,-2.829388,-8.257813,1.226739
1.270000,-0.628032,-1.641193,1.435668,1.522999,0.850004,-0.034024,0.301468,0.918485,0.102792,-3.593293,-2.059216,-0.091089,-2.765046,-8.071824,1.442652
1.280000,-0.612788,-1.632647,1.435333,1.525834,0.859085,-0.033000,0.265398,0.897493,0.101956,-3.620594,-2.138931,-0.075617,-2.693895,-7.868279,1.650195
1.290000,-0.597517,-1.624012,1.435008,1.528306,0.867952,-0.031984,0.229058,0.875714,0.101286,-3.647148,-2.216524,-0.058117,-2.615860,-7.647438,1.848091
1.300000,-0.582223,-1.615289,1.434693,1.530414,0.876597,-0.030974,0.192457,0.853170,0.100800,-3.672888,-2.291823,-0.038692,-2.530863,-7.409564,2.035059
1.310000,-0.566910,-1.606481,1.434389,1.532155,0.885013,-0.029967,0.155603,0.829884,0.100519,-3.697788,-2.364799,-0.017360,-2.437665,-7.151405,2.207381
1.320000,-0.551581,-1.597590,1.434094,1.533525,0.893192,-0.028963,0.118505,0.805883,0.100459,-3.721670,-2.434954,0.005521,-2.337498,-6.877164,2.366517
1.330000,-0.536240,-1.588618,1.433809,1.534524,0.901128,-0.027957,0.081173,0.781194,0.100635,-3.744515,-2.502290,0.029923,-2.230428,-6.587533,2.511487
1.340000,-0.520892,-1.579568,1.433535,1.535148,0.908814,-0.026949,0.043618,0.755847,0.101062,-3.766256,-2.566656,0.055700,-2.116522,-6.283204,2.641311
1.350000,-0.505539,-1.570442,1.433270,1.535395,0.916243,-0.025935,0.005852,0.729872,0.101753,-3.786823,-2.627908,0.082696,-1.995848,-5.964868,2.755010
1.360000,-0.490185,-1.561244,1.433016,1.535264,0.923409,-0.024913,-0.032115,0.703300,0.102721,-3.806200,-2.685862,0.110891,-1.867228,-5.634394,2.847869
1.370000,-0.474835,-1.551975,1.432772,1.534753,0.930307,-0.023880,-0.070268,0.676165,0.103973,-3.824202,-2.740501,0.139761,-1.732125,-5.291152,2.923100
1.380000,-0.459491,-1.542639,1.432539,1.533858,0.936931,-0.022833,-0.108594,0.648502,0.105518,-3.840821,-2.791645,0.169293,-1.590759,-4.935688,2.980180
1.390000,-0.444159,-1.533237,1.432316,1.532580,0.943275,-0.021769,-0.147079,0.620345,0.107361,-3.855997,-2.839175,0.199302,-1.443349,-4.568548,3.018586
1.400000,-0.428841,-1.523774,1.432103,1.530916,0.949336,-0.020684,-0.185709,0.591731,0.109505,-3.869669,-2.882979,0.229600,-1.290115,-4.190280,3.037795
1.410000,-0.413542,-1.514252,1.431902,1.528866,0.955109,-0.019577,-0.224468,0.562696,0.111955,-3.881793,-2.923150,0.260161,-1.130964,-3.796283,3.033038
1.420000,-0.398265,-1.504673,1.431712,1.526427,0.960589,-0.018444,-0.263339,0.533281,0.114708,-3.892284,-2.959103,0.290385,-0.966465,-3.392882,3.008559
1.430000,-0.383015,-1.495041,1.431533,1.523598,0.965773,-0.017282,-0.302308,0.503527,0.117762,-3.901105,-2.990980,0.320266,-0.796877,-2.981254,2.964354
1.440000,-0.367794,-1.485358,1.431366,1.520380,0.970658,-0.016088,-0.341356,0.473475,0.121111,-3.908206,-3.018704,0.349606,-0.622456,-2.562576,2.900421
1.450000,-0.352608,-1.475629,1.431211,1.516771,0.975242,-0.014859,-0.380466,0.443167,0.124751,-3.913539,-3.042212,0.378209,-0.443460,-2.138026,2.816757
1.460000,-0.337460,-1.465855,1.431069,1.512771,0.979521,-0.013592,-0.419620,0.412645,0.128674,-3.917040,-3.061476,0.406044,-0.260654,-1.708105,2.709102
1.470000,-0.322354,-1.456039,1.430940,1.508379,0.983494,-0.012285,-0.458801,0.381952,0.132868,-3.918716,-3.076392,0.432517,-0.073727,-1.274749,2.582231
1.480000,-0.307294,-1.446186,1.430824,1.503595,0.987159,-0.010934,-0.497988,0.351132,0.137320,-3.918502,-3.086964,0.457626,0.117127,-0.839218,2.436663
1.490000,-0.292284,-1.436297,1.430721,1.498419,0.990516,-0.009538,-0.537164,0.320227,0.142016,-3.916361,-3.093174,0.481189,0.311711,-0.402772,2.272914
1.500000,-0.277327,-1.426376,1.430633,1.492852,0.993564,-0.008093,-0.576309,0.289283,0.146938,-3.912256,-3.095020,0.503026,0.509830,0.033331,2.091505
1.510000,-0.262428,-1.416427,1.430560,1.486893,0.996302,-0.006598,-0.615403,0.258344,0.152071,-3.906154,-3.092277,0.523116,0.711306,0.461890,1.889060
1.520000,-0.247590,-1.406451,1.430501,1.480544,0.998731,-0.005051,-0.654425,0.227451,0.157393,-3.898020,-3.085524,0.540927,0.915923,0.888312,1.670467
1.530000,-0.232818,-1.396453,1.430459,1.473805,1.000851,-0.003450,-0.693356,0.196648,0.162882,-3.887825,-3.074520,0.556475,1.123484,1.312064,1.436720
1.540000,-0.218116,-1.386435,1.430432,1.466677,1.002664,-0.001793,-0.732175,0.165975,0.168515,-3.875541,-3.059294,0.569614,1.333791,1.732613,1.188814
1.550000,-0.203486,-1.376401,1.430423,1.459162,1.004171,-0.000079,-0.770860,0.135476,0.174266,-3.861141,-3.039880,0.580208,1.546647,2.149427,0.927744
1.560000,-0.188934,-1.366353,1.430431,1.451260,1.005374,0.001693,-0.809391,0.105191,0.180111,-3.844601,-3.016337,0.588243,1.761858,2.562409,0.651610
1.570000,-0.174462,-1.356295,1.430457,1.442974,1.006276,0.003523,-0.847745,0.075163,0.186022,-3.825897,-2.988668,0.593333,1.979221,2.970537,0.364656
1.580000,-0.160075,-1.346228,1.430502,1.434306,1.006879,0.005413,-0.885901,0.045431,0.191968,-3.805010,-2.956944,0.595505,2.198540,3.373224,0.068229
1.590000,-0.145777,-1.336158,1.430566,1.425257,1.007186,0.007363,-0.923838,0.016037,0.197922,-3.781920,-2.921223,0.594670,2.419615,3.769885,-0.236320
1.600000,-0.131572,-1.326086,1.430649,1.415830,1.007201,0.009372,-0.961532,-0.012980,0.203851,-3.756612,-2.881569,0.590756,2.642249,4.159932,-0.547644
1.610000,-0.117462,-1.316015,1.430753,1.406027,1.006928,0.011440,-0.998963,-0.041581,0.209727,-3.729070,-2.837974,0.583762,2.866230,4.540903,-0.865976
1.620000,-0.103452,-1.305948,1.430878,1.395852,1.006371,0.013566,-1.036106,-0.069727,0.215516,-3.699283,-2.790692,0.573494,3.091376,4.914319,-1.188190
1.630000,-0.089546,-1.295888,1.431025,1.385306,1.005535,0.015750,-1.072941,-0.097382,0.221186,-3.667239,-2.739714,0.559990,3.317489,5.279822,-1.512744
1.640000,-0.075747,-1.285838,1.431193,1.374394,1.004425,0.017989,-1.109443,-0.124509,0.226705,-3.632931,-2.685123,0.543236,3.544373,5.637058,-1.838095
1.650000,-0.062059,-1.275801,1.431385,1.363119,1.003046,0.020283,-1.145592,-0.151073,0.232040,-3.596350,-2.627002,0.523231,3.771832,5.985668,-2.162701
1.660000,-0.048486,-1.265778,1.431599,1.351483,1.001405,0.022629,-1.181363,-0.177037,0.237159,-3.557501,-2.565381,0.499992,3.999870,6.323818,-2.485084
1.670000,-0.035031,-1.255774,1.431837,1.339493,0.999508,0.025025,-1.216734,-0.202369,0.242029,-3.516361,-2.500490,0.473545,4.228064,6.652812,-2.803628
1.680000,-0.021697,-1.245789,1.432100,1.327150,0.997360,0.027469,-1.251683,-0.227036,0.246619,-3.472940,-2.432356,0.443938,4.456195,6.972474,-3.116782
1.690000,-0.008489,-1.235827,1.432387,1.314461,0.994969,0.029957,-1.286185,-0.251006,0.250898,-3.427238,-2.361072,0.411233,4.684042,7.282630,-3.422996
1.700000,0.004591,-1.225890,1.432699,1.301428,0.992342,0.032486,-1.320220,-0.274247,0.254834,-3.379261,-2.286736,0.375506,4.911382,7.583103,-3.720718
1.710000,0.017538,-1.215981,1.433037,1.288058,0.989487,0.035052,-1.353763,-0.296730,0.258397,-3.329026,-2.209417,0.336793,5.138329,7.873054,-4.006921
1.720000,0.030351,-1.206101,1.433400,1.274355,0.986410,0.037652,-1.386793,-0.318426,0.261560,-3.276512,-2.129278,0.295340,5.364287,8.153054,-4.281711
1.730000,0.043024,-1.196254,1.433790,1.260324,0.983121,0.040282,-1.419286,-0.339307,0.264295,-3.221745,-2.046389,0.251202,5.588995,8.423010,-4.543719
1.740000,0.055556,-1.186440,1.434206,1.245971,0.979627,0.042937,-1.451220,-0.359345,0.266576,-3.164737,-1.960852,0.204513,5.812192,8.682826,-4.791575
1.750000,0.067943,-1.176662,1.434649,1.231301,0.975937,0.045612,-1.482573,-0.378515,0.268377,-3.105507,-1.872767,0.155422,6.033615,8.932410,-5.023908
1.760000,0.080181,-1.166922,1.435118,1.216321,0.972060,0.048303,-1.513323,-0.396792,0.269676,-3.044086,-1.782246,0.103977,6.253360,9.171867,-5.236478
1.770000,0.092268,-1.157221,1.435615,1.201037,0.968004,0.051004,-1.543448,-0.414152,0.270450,-2.980463,-1.689373,0.050624,6.470765,9.400879,-5.431138
1.780000,0.104201,-1.147562,1.436138,1.185454,0.963780,0.053710,-1.572925,-0.430573,0.270682,-2.914679,-1.594263,-0.004582,6.685524,9.619328,-5.606868
1.790000,0.115976,-1.137946,1.436689,1.169581,0.959396,0.056415,-1.601734,-0.446031,0.270353,-2.846763,-1.497022,-0.061447,6.897332,9.827097,-5.762649
1.800000,0.127591,-1.128375,1.437267,1.153422,0.954862,0.059115,-1.629853,-0.460506,0.269448,-2.776744,-1.397757,-0.119765,7.105882,10.024067,-5.897463
1.810000,0.139044,-1.118849,1.437871,1.136986,0.950189,0.061802,-1.657262,-0.473980,0.267952,-2.704667,-1.296611,-0.179480,7.311131,10.210981,-6.006325
1.820000,0.150330,-1.109371,1.438503,1.120279,0.945386,0.064472,-1.683940,-0.486432,0.265855,-2.630546,-1.193613,-0.239994,7.512480,10.386755,-6.092668
1.830000,0.161448,-1.099942,1.439161,1.103310,0.940464,0.067118,-1.709866,-0.497846,0.263150,-2.554432,-1.088914,-0.301257,7.709592,10.551164,-6.155959
1.840000,0.172396,-1.090562,1.439845,1.086084,0.935433,0.069733,-1.735022,-0.508205,0.259828,-2.476369,-0.982629,-0.363035,7.902129,10.703987,-6.195666
1.850000,0.183169,-1.081234,1.440555,1.068612,0.930303,0.072312,-1.759387,-0.517494,0.255888,-2.396405,-0.874874,-0.425089,8.089755,10.844999,-6.211254
1.860000,0.193767,-1.071957,1.441291,1.050899,0.925087,0.074849,-1.782944,-0.525699,0.251324,-2.314593,-0.765812,-0.487361,8.272177,10.975080,-6.197544
1.870000,0.204187,-1.062732,1.442052,1.032956,0.919793,0.077337,-1.805673,-0.532806,0.246142,-2.230983,-0.655463,-0.549166,8.449007,11.092768,-6.159220
1.880000,0.214425,-1.053561,1.442838,1.014789,0.914434,0.079769,-1.827558,-0.538804,0.240343,-2.145633,-0.544000,-0.610464,8.619902,11.197706,-6.096317
1.890000,0.224482,-1.044444,1.443647,0.996407,0.909021,0.082141,-1.848580,-0.543683,0.233935,-2.058605,-0.431552,-0.671010,8.784518,11.289533,-6.008872
1.900000,0.234353,-1.035381,1.444480,0.977820,0.903564,0.084446,-1.868725,-0.547433,0.226926,-1.969965,-0.318254,-0.730560,8.942514,11.367891,-5.896922
1.910000,0.244037,-1.026372,1.445336,0.959036,0.898076,0.086678,-1.887974,-0.550046,0.219326,-1.879768,-0.204273,-0.789058,9.093275,11.433235,-5.755683
1.920000,0.253533,-1.017419,1.446213,0.940064,0.892567,0.088831,-1.906315,-0.551516,0.211150,-1.788111,-0.089673,-0.845809,9.236761,11.484293,-5.590601
1.930000,0.262838,-1.008521,1.447112,0.920913,0.887049,0.090899,-1.923732,-0.551838,0.202415,-1.695058,0.025364,-0.900793,9.372665,11.520608,-5.402302
1.940000,0.271951,-0.999678,1.448031,0.901592,0.881534,0.092877,-1.940212,-0.551008,0.193141,-1.600684,0.140689,-0.953780,9.500674,11.541722,-5.191412
1.950000,0.280869,-0.990890,1.448969,0.882112,0.876033,0.094760,-1.955742,-0.549024,0.183347,-1.505072,0.256146,-1.004548,9.620481,11.547176,-4.958559
1.960000,0.289592,-0.982157,1.449926,0.862481,0.870558,0.096543,-1.970309,-0.545885,0.173056,-1.408273,0.371578,-1.053054,9.731020,11.536513,-4.699955
1.970000,0.298118,-0.973479,1.450900,0.842709,0.865119,0.098220,-1.983903,-0.541593,0.162295,-1.310447,0.486821,-1.098676,9.832828,11.509274,-4.421180
1.980000,0.306446,-0.964855,1.451890,0.822806,0.859730,0.099787,-1.996515,-0.536150,0.151092,-1.211646,0.601707,-1.141415,9.925688,11.465002,-4.123399
1.990000,0.314574,-0.956284,1.452895,0.802782,0.854400,0.101240,-2.008133,-0.529560,0.139477,-1.111963,0.716063,-1.181085,10.009384,11.403239,-3.807781
2.000000,0.322501,-0.947767,1.453914,0.782646,0.849142,0.102575,-2.018751,-0.521831,0.127481,-1.011490,0.829712,-1.217515,10.083697,11.323526,-3.475491
2.010000,0.330227,-0.939301,1.454946,0.762410,0.843967,0.103789,-2.028360,-0.512969,0.115137,-0.910269,0.942518,-1.250678,10.147086,11.224241,-3.124288
2.020000,0.337749,-0.930887,1.455990,0.742083,0.838887,0.104877,-2.036955,-0.502984,0.102480,-0.808521,1.054186,-1.280106,10.200819,11.106234,-2.759164
2.030000,0.345068,-0.922523,1.457043,0.721674,0.833911,0.105837,-2.044529,-0.491889,0.089547,-0.706285,1.164580,-1.305820,10.244843,10.969188,-2.381702
2.040000,0.352183,-0.914208,1.458106,0.701195,0.829052,0.106667,-2.051079,-0.479697,0.076376,-0.603657,1.273506,-1.327704,10.279102,10.812788,-1.993487
2.050000,0.359092,-0.905942,1.459176,0.680656,0.824321,0.107364,-2.056601,-0.466425,0.063006,-0.500736,1.380770,-1.345659,10.303540,10.636718,-1.596101
2.060000,0.365795,-0.897721,1.460253,0.660067,0.819728,0.107927,-2.061093,-0.452087,0.049475,-0.397563,1.486267,-1.359675,10.316697,10.438309,-1.189266
2.070000,0.372293,-0.889547,1.461334,0.639438,0.815283,0.108353,-2.064552,-0.436706,0.035826,-0.294371,1.589574,-1.369509,10.320096,10.219888,-0.776657
2.080000,0.378584,-0.881415,1.462420,0.618779,0.810997,0.108643,-2.066980,-0.420303,0.022099,-0.191194,1.690598,-1.375195,10.313854,9.981428,-0.360086
2.090000,0.384669,-0.873326,1.463507,0.598102,0.806880,0.108795,-2.068377,-0.402903,0.008336,-0.088126,1.789136,-1.376703,10.298087,9.722902,0.058634
2.100000,0.390546,-0.865277,1.464595,0.577415,0.802942,0.108810,-2.068743,-0.384530,-0.005421,0.014737,1.884989,-1.374021,10.272913,9.444282,0.477693
2.110000,0.396217,-0.857267,1.465683,0.556730,0.799192,0.108687,-2.068082,-0.365211,-0.019130,0.117344,1.978084,-1.367152,10.237377,9.142283,0.895216
2.120000,0.401681,-0.849293,1.466768,0.536057,0.795641,0.108428,-2.066398,-0.344978,-0.032750,0.219502,2.067914,-1.356125,10.192798,8.820535,1.309460
2.130000,0.406938,-0.841353,1.467851,0.515406,0.792296,0.108032,-2.063694,-0.323864,-0.046239,0.321170,2.154430,-1.340980,10.139426,8.479411,1.718621
2.140000,0.411989,-0.833446,1.468929,0.494786,0.789166,0.107503,-2.059976,-0.301901,-0.059556,0.422262,2.237439,-1.321776,10.077509,8.119284,2.120894
2.150000,0.416834,-0.825569,1.470000,0.474209,0.786261,0.106842,-2.055251,-0.279127,-0.072661,0.522693,2.316753,-1.298591,10.007294,7.740525,2.514475
2.160000,0.421473,-0.817720,1.471065,0.453685,0.783586,0.106051,-2.049525,-0.255578,-0.085514,0.622412,2.392333,-1.271438,9.928252,7.339861,2.895455
2.170000,0.425908,-0.809896,1.472121,0.433222,0.781151,0.105133,-2.042805,-0.231294,-0.098078,0.721267,2.463655,-1.240628,9.841504,6.921756,3.264392
2.180000,0.430138,-0.802096,1.473167,0.412832,0.778963,0.104090,-2.035102,-0.206319,-0.110315,0.819217,2.530713,-1.206195,9.747395,6.487029,3.619737
2.190000,0.434165,-0.794316,1.474202,0.392523,0.777027,0.102928,-2.026424,-0.180695,-0.122190,0.916191,2.593343,-1.168284,9.646268,6.036498,3.959944
2.200000,0.437989,-0.786555,1.475225,0.372307,0.775351,0.101648,-2.016782,-0.154467,-0.133669,1.012121,2.651393,-1.127052,9.538467,5.570982,4.283466
2.210000,0.441611,-0.778808,1.476235,0.352191,0.773940,0.100256,-2.006185,-0.127681,-0.144719,1.107014,2.704842,-1.082519,9.422454,5.088097,4.584826
2.220000,0.445033,-0.771075,1.477230,0.332186,0.772799,0.098755,-1.994646,-0.100387,-0.155310,1.200634,2.753254,-1.035244,9.300685,4.592256,4.866887
2.230000,0.448255,-0.763352,1.478210,0.312301,0.771933,0.097151,-1.982176,-0.072633,-0.165415,1.293011,2.796648,-0.985250,9.173734,4.084669,5.128584
2.240000,0.451279,-0.755635,1.479173,0.292545,0.771348,0.095448,-1.968790,-0.044471,-0.175007,1.384094,2.834913,-0.932744,9.042175,3.566546,5.368852
2.250000,0.454107,-0.747924,1.480118,0.272928,0.771045,0.093653,-1.954499,-0.015952,-0.184062,1.473841,2.867948,-0.877947,8.906582,3.039099,5.586625
2.260000,0.456739,-0.740214,1.481046,0.253458,0.771030,0.091769,-1.939318,0.012872,-0.192557,1.562163,2.895774,-0.820885,8.768802,2.500835,5.775657
2.270000,0.459176,-0.732502,1.481953,0.234145,0.771303,0.089803,-1.923260,0.041945,-0.200474,1.649150,2.918063,-0.762283,8.627982,1.955998,5.940697
2.280000,0.461422,-0.724787,1.482841,0.214996,0.771869,0.087762,-1.906340,0.071215,-0.207797,1.734714,2.934878,-0.702152,8.484538,1.406129,6.081312
2.290000,0.463477,-0.717064,1.483708,0.196021,0.772728,0.085650,-1.888571,0.100624,-0.214512,1.818833,2.946174,-0.640740,8.338890,0.852770,6.197072
2.300000,0.465343,-0.709331,1.484554,0.177228,0.773882,0.083473,-1.869968,0.130120,-0.220608,1.901486,2.951927,-0.578295,8.191454,0.297462,6.287545
2.310000,0.467022,-0.701585,1.485378,0.158624,0.775331,0.081239,-1.850546,0.159645,-0.226073,1.982617,2.952149,-0.514853,8.043666,-0.258939,6.346701
2.320000,0.468516,-0.693823,1.486179,0.140219,0.777075,0.078954,-1.830321,0.189144,-0.230904,2.062311,2.946782,-0.451196,7.894803,-0.814122,6.380393
2.330000,0.469827,-0.686043,1.486957,0.122020,0.779113,0.076623,-1.809305,0.218562,-0.235097,2.140511,2.935876,-0.387329,7.745159,-1.366461,6.388875
2.340000,0.470957,-0.678240,1.487711,0.104036,0.781445,0.074254,-1.787515,0.247843,-0.238651,2.217212,2.919468,-0.323502,7.595029,-1.914331,6.372400
2.350000,0.471909,-0.670413,1.488442,0.086273,0.784069,0.071853,-1.764966,0.276933,-0.241568,2.292411,2.897610,-0.259963,7.444706,-2.456107,6.331222
2.360000,0.472683,-0.662558,1.489148,0.068739,0.786983,0.069425,-1.741672,0.305777,-0.243850,2.366162,2.870311,-0.196758,7.293079,-2.988623,6.260530
2.370000,0.473284,-0.654672,1.489830,0.051442,0.790184,0.066978,-1.717648,0.334322,-0.245506,2.438337,2.837799,-0.134605,7.142019,-3.511982,6.166264
2.380000,0.473713,-0.646753,1.490488,0.034388,0.793669,0.064517,-1.692910,0.362516,-0.246545,2.509006,2.800106,-0.073509,6.991993,-4.024748,6.049297
2.390000,0.473973,-0.638798,1.491120,0.017586,0.797433,0.062049,-1.667473,0.390307,-0.246980,2.578182,2.757345,-0.013692,6.843465,-4.525483,5.910505
2.400000,0.474066,-0.630804,1.491729,0.001041,0.801473,0.059579,-1.641351,0.417646,-0.246824,2.645882,2.709642,0.044631,6.696902,-5.012751,5.750760
2.410000,0.473994,-0.622768,1.492312,-0.015239,0.805784,0.057114,-1.614561,0.444483,-0.246091,2.712028,2.657024,0.101400,6.555305,-5.482201,5.567301
2.420000,0.473762,-0.614687,1.492871,-0.031248,0.810361,0.054659,-1.587115,0.470771,-0.244802,2.776883,2.599921,0.156077,6.416294,-5.935667,5.365084
2.430000,0.473370,-0.606559,1.493405,-0.046979,0.815198,0.052220,-1.559028,0.496466,-0.242977,2.840363,2.538367,0.208644,6.280025,-6.372069,5.145429
2.440000,0.472823,-0.598382,1.493915,-0.062426,0.820288,0.049801,-1.530312,0.521524,-0.240637,2.902494,2.472540,0.258932,6.146654,-6.790327,4.909655
2.450000,0.472123,-0.590153,1.494401,-0.077583,0.825626,0.047409,-1.500982,0.545903,-0.237806,2.963306,2.402625,0.306788,6.016335,-7.189360,4.659081
2.460000,0.471272,-0.581869,1.494864,-0.092444,0.831204,0.045047,-1.471052,0.569562,-0.234509,3.022724,2.328647,0.352132,5.891925,-7.563702,4.393436
2.470000,0.470275,-0.573528,1.495302,-0.107002,0.837015,0.042720,-1.440532,0.592464,-0.230773,3.081034,2.251225,0.394688,5.770547,-7.917197,4.115825
2.480000,0.469133,-0.565128,1.495718,-0.121253,0.843051,0.040433,-1.409435,0.614575,-0.226625,3.138145,2.170374,0.434414,5.652028,-8.249301,3.827765
2.490000,0.467851,-0.556666,1.496111,-0.135189,0.849303,0.038189,-1.377773,0.635861,-0.222094,3.194083,2.086312,0.471213,5.536191,-8.559473,3.530768
2.500000,0.466431,-0.548141,1.496482,-0.148806,0.855765,0.035992,-1.345557,0.656291,-0.217211,3.248877,1.999260,0.505004,5.422860,-8.847167,3.226351
2.510000,0.464876,-0.539550,1.496831,-0.162098,0.862426,0.033846,-1.312800,0.675835,-0.212005,3.302498,1.909275,0.535699,5.313141,-9.107547,2.916559
2.520000,0.463190,-0.530892,1.497159,-0.175060,0.869279,0.031753,-1.279511,0.694468,-0.206507,3.355089,1.816994,0.563297,5.205422,-9.344891,2.602310
2.530000,0.461376,-0.522164,1.497466,-0.187687,0.876313,0.029716,-1.245702,0.712167,-0.200749,3.406612,1.722454,0.587735,5.099371,-9.559182,2.285054
2.540000,0.459437,-0.513365,1.497754,-0.199973,0.883519,0.027739,-1.211382,0.728911,-0.194763,3.457081,1.625887,0.608993,4.994656,-9.750402,1.966240
2.550000,0.457378,-0.504493,1.498021,-0.211913,0.890888,0.025822,-1.176563,0.744679,-0.188580,3.506508,1.527523,0.627060,4.890944,-9.918536,1.647318
2.560000,0.455200,-0.495547,1.498270,-0.223502,0.898409,0.023968,-1.141256,0.759455,-0.182233,3.554863,1.427462,0.641859,4.788880,-10.060248,1.331884
2.570000,0.452909,-0.486525,1.498501,-0.234736,0.906073,0.022178,-1.105469,0.773224,-0.175753,3.602243,1.326246,0.653610,4.687036,-10.179246,1.018979
2.580000,0.450507,-0.477425,1.498714,-0.245610,0.913870,0.020453,-1.069214,0.785976,-0.169172,3.648603,1.223951,0.662250,4.584963,-10.275918,0.709789
2.590000,0.447998,-0.468247,1.498910,-0.256119,0.921790,0.018794,-1.032501,0.797700,-0.162519,3.693940,1.120800,0.667822,4.482208,-10.350653,0.405501
2.600000,0.445386,-0.458989,1.499090,-0.266259,0.929821,0.017203,-0.995339,0.808390,-0.155825,3.738244,1.017010,0.670381,4.378320,-10.403841,0.107303
2.610000,0.442674,-0.449650,1.499254,-0.276025,0.937954,0.015678,-0.957740,0.818038,-0.149122,3.781496,0.912709,0.669873,4.272977,-10.433732,-0.180599
2.620000,0.439866,-0.440229,1.499404,-0.285412,0.946178,0.014220,-0.919713,0.826643,-0.142437,3.823691,0.808308,0.666661,4.165584,-10.443116,-0.460408
2.630000,0.436967,-0.430726,1.499539,-0.294417,0.954483,0.012829,-0.881269,0.834204,-0.135798,3.864799,0.703913,0.660695,4.055672,-10.432645,-0.731307
2.640000,0.433979,-0.421139,1.499661,-0.303036,0.962859,0.011504,-0.842420,0.840722,-0.129232,3.904794,0.599719,0.652067,3.942776,-10.402968,-0.992478
2.650000,0.430907,-0.411469,1.499769,-0.311264,0.971294,0.010244,-0.803177,0.846200,-0.122765,3.943643,0.495916,0.640880,3.826427,-10.354739,-1.243105
2.660000,0.427755,-0.401713,1.499866,-0.319098,0.979779,0.009048,-0.763551,0.850642,-0.116424,3.981335,0.392644,0.627117,3.705531,-10.287574,-1.479198
2.670000,0.424527,-0.391873,1.499951,-0.326534,0.988304,0.007915,-0.723555,0.854055,-0.110231,4.017768,0.290175,0.611194,3.580325,-10.203285,-1.703501
2.680000,0.421226,-0.381947,1.500024,-0.333568,0.996857,0.006843,-0.683200,0.856449,-0.104207,4.052926,0.188632,0.593088,3.450421,-10.102649,-1.915587
2.690000,0.417857,-0.371936,1.500088,-0.340197,1.005429,0.005830,-0.642501,0.857832,-0.098376,4.086759,0.088174,0.572924,3.315427,-9.986443,-2.115026
2.700000,0.414423,-0.361839,1.500141,-0.346417,1.014010,0.004875,-0.601470,0.858216,-0.092755,4.119216,-0.011047,0.550831,3.174954,-9.855445,-2.301389
2.710000,0.410930,-0.351656,1.500185,-0.352225,1.022590,0.003974,-0.560120,0.857615,-0.087366,4.150289,-0.108894,0.526832,3.027331,-9.710279,-2.471472
2.720000,0.407380,-0.341387,1.500221,-0.357619,1.031159,0.003127,-0.518469,0.856043,-0.082224,4.179799,-0.205216,0.501323,2.873605,-9.551896,-2.627962
2.730000,0.403779,-0.331033,1.500248,-0.362594,1.039708,0.002329,-0.476530,0.853516,-0.077345,4.207740,-0.299891,0.474318,2.713544,-9.381090,-2.770773
2.740000,0.400130,-0.320593,1.500268,-0.367148,1.048227,0.001579,-0.434319,0.850051,-0.072742,4.234048,-0.392799,0.445953,2.546915,-9.198659,-2.899816
2.750000,0.396437,-0.310068,1.500280,-0.371279,1.056706,0.000873,-0.391854,0.845667,-0.068430,4.258656,-0.483828,0.416368,2.373484,-9.005399,-3.015003
2.760000,0.392706,-0.299459,1.500285,-0.374985,1.065137,0.000209,-0.349151,0.840382,-0.064420,4.281565,-0.572852,0.385617,2.191229,-8.802646,-3.114162
2.770000,0.388939,-0.288766,1.500284,-0.378262,1.073511,-0.000416,-0.306229,0.834217,-0.060721,4.302537,-0.659825,0.354037,2.001926,-8.590590,-3.199544
2.780000,0.385142,-0.277989,1.500277,-0.381109,1.081818,-0.001006,-0.263107,0.827192,-0.057341,4.321580,-0.744635,0.321672,1.805560,-8.369961,-3.271315
2.790000,0.381318,-0.267129,1.500264,-0.383523,1.090052,-0.001564,-0.219804,0.819331,-0.054289,4.338625,-0.827198,0.288656,1.602117,-8.141489,-3.329642
2.800000,0.377473,-0.256188,1.500246,-0.385504,1.098202,-0.002093,-0.176341,0.810656,-0.051570,4.353599,-0.907441,0.255123,1.391584,-7.905904,-3.374693
2.810000,0.373610,-0.245166,1.500222,-0.387050,1.106262,-0.002597,-0.132739,0.801191,-0.049189,4.366473,-0.985275,0.221154,1.172935,-7.664457,-3.405332
2.820000,0.369733,-0.234063,1.500194,-0.388159,1.114224,-0.003078,-0.089019,0.790959,-0.047148,4.377080,-1.060688,0.187001,0.947291,-7.417293,-3.423188
2.830000,0.365848,-0.222882,1.500161,-0.388830,1.122079,-0.003541,-0.045205,0.779985,-0.045449,4.385395,-1.133604,0.152732,0.714761,-7.165079,-3.428586
2.840000,0.361958,-0.211622,1.500123,-0.389062,1.129821,-0.003988,-0.001319,0.768295,-0.044093,4.391352,-1.203975,0.118470,0.475457,-6.908480,-3.421853
2.850000,0.358068,-0.200286,1.500081,-0.388856,1.137442,-0.004424,0.042614,0.755914,-0.043079,4.394882,-1.271761,0.084334,0.229487,-6.648163,-3.403316
2.860000,0.354182,-0.188874,1.500035,-0.388210,1.144937,-0.004851,0.086572,0.742870,-0.042406,4.396076,-1.336851,0.050420,-0.026969,-6.386743,-3.372749
2.870000,0.350305,-0.177387,1.499984,-0.387125,1.152298,-0.005273,0.130527,0.729186,-0.042070,4.394499,-1.399400,0.016892,-0.289390,-6.122698,-3.331097
2.880000,0.346441,-0.165828,1.499929,-0.385600,1.159519,-0.005693,0.174453,0.714890,-0.042066,4.390270,-1.459297,-0.016166,-0.557184,-5.856455,-3.278755
2.890000,0.342595,-0.154197,1.499870,-0.383636,1.166594,-0.006115,0.218323,0.700009,-0.042391,4.383339,-1.516523,-0.048649,-0.829760,-5.588443,-3.216116
2.900000,0.338770,-0.142497,1.499807,-0.381233,1.173517,-0.006542,0.262110,0.684569,-0.043037,4.373661,-1.571062,-0.080456,-1.106526,-5.319088,-3.143574
2.910000,0.334972,-0.130728,1.499739,-0.378394,1.180283,-0.006977,0.305787,0.668597,-0.043998,4.361150,-1.622909,-0.111496,-1.385713,-5.048630,-3.061354
2.920000,0.331204,-0.118892,1.499667,-0.375118,1.186887,-0.007423,0.349324,0.652120,-0.045264,4.345883,-1.672041,-0.141660,-1.668052,-4.777708,-2.970039
2.930000,0.327471,-0.106990,1.499591,-0.371408,1.193324,-0.007883,0.392695,0.635165,-0.046828,4.327780,-1.718463,-0.170868,-1.953098,-4.506771,-2.870045
2.940000,0.323777,-0.095026,1.499510,-0.367265,1.199589,-0.008361,0.435870,0.617760,-0.048678,4.306814,-1.762178,-0.199033,-2.240403,-4.236270,-2.761787
2.950000,0.320127,-0.082999,1.499424,-0.362691,1.205678,-0.008858,0.478821,0.599930,-0.050805,4.282966,-1.803192,-0.226077,-2.529522,-3.966656,-2.645679
2.960000,0.316525,-0.070913,1.499332,-0.357689,1.211586,-0.009378,0.521519,0.581705,-0.053196,4.256177,-1.841503,-0.251918,-2.818942,-3.698693,-2.522249
2.970000,0.312974,-0.058768,1.499236,-0.352262,1.217311,-0.009923,0.563935,0.563109,-0.055839,4.226536,-1.877157,-0.276494,-3.109412,-3.432479,-2.391786
2.980000,0.309481,-0.046567,1.499134,-0.346412,1.222847,-0.010495,0.606040,0.544170,-0.058721,4.193986,-1.910160,-0.299731,-3.400617,-3.168426,-2.254688
2.990000,0.306048,-0.034312,1.499026,-0.340142,1.228193,-0.011098,0.647805,0.524915,-0.061829,4.158522,-1.940534,-0.321566,-3.692240,-2.906945,-2.111357
3.000000,0.302679,-0.022004,1.498912,-0.333457,1.233345,-0.011732,0.689201,0.505368,-0.065147,4.120141,-1.968309,-0.341939,-3.983965,-2.648449,-1.962194
3.010000,0.299380,-0.009646,1.498791,-0.326360,1.238299,-0.012401,0.730200,0.485558,-0.068662,4.078964,-1.993435,-0.360781,-4.278519,-2.395373,-1.807882
3.020000,0.296153,0.002761,1.498664,-0.318854,1.243055,-0.013106,0.770770,0.465508,-0.072358,4.034709,-2.016138,-0.378067,-4.572170,-2.145857,-1.648505
3.030000,0.293004,0.015215,1.498529,-0.310946,1.247609,-0.013849,0.810884,0.445244,-0.076218,3.987526,-2.036364,-0.393735,-4.864229,-1.900066,-1.484427
3.040000,0.289936,0.027713,1.498387,-0.302638,1.251959,-0.014631,0.850511,0.424789,-0.080227,3.937432,-2.054152,-0.407741,-5.154008,-1.658163,-1.316015
3.050000,0.286953,0.040253,1.498236,-0.293937,1.256104,-0.015454,0.889623,0.404169,-0.084367,3.884455,-2.069541,-0.420042,-5.440818,-1.420313,-1.143634
3.060000,0.284058,0.052834,1.498077,-0.284848,1.260042,-0.016319,0.928190,0.383406,-0.088622,3.828571,-2.082579,-0.430597,-5.722538,-1.186517,-0.967775
3.070000,0.281257,0.065454,1.497910,-0.275375,1.263772,-0.017227,0.966185,0.362525,-0.092973,3.769955,-2.093293,-0.439382,-6.000086,-0.957122,-0.788663
3.080000,0.278552,0.078109,1.497733,-0.265526,1.267292,-0.018179,1.003580,0.341548,-0.097404,3.708585,-2.101737,-0.446360,-6.272950,-0.732311,-0.606650
3.090000,0.275948,0.090799,1.497546,-0.255306,1.270603,-0.019175,1.040348,0.320497,-0.101894,3.644513,-2.107955,-0.451506,-6.540616,-0.512269,-0.422086
3.100000,0.273447,0.103520,1.497349,-0.244721,1.273702,-0.020217,1.076462,0.299396,-0.106427,3.577792,-2.111998,-0.454795,-6.802571,-0.297179,-0.235322
3.110000,0.271055,0.116272,1.497141,-0.233779,1.276590,-0.021304,1.111895,0.278265,-0.110984,3.508453,-2.113900,-0.456207,-7.057552,-0.087629,-0.046682
3.120000,0.268773,0.129051,1.496923,-0.222486,1.279267,-0.022436,1.146622,0.257125,-0.115545,3.436630,-2.113751,-0.455725,-7.305887,0.116649,0.143454
3.130000,0.266606,0.141857,1.496693,-0.210849,1.281733,-0.023615,1.180619,0.235996,-0.120092,3.362358,-2.111585,-0.453335,-7.547154,0.315522,0.334732
3.140000,0.264557,0.154685,1.496450,-0.198876,1.283987,-0.024838,1.213862,0.214900,-0.124606,3.285712,-2.107459,-0.449027,-7.780932,0.508854,0.526797
3.150000,0.262630,0.167536,1.496196,-0.186574,1.286031,-0.026107,1.246326,0.193854,-0.129066,3.206766,-2.101427,-0.442797,-8.006798,0.696512,0.719297
3.160000,0.260827,0.180405,1.495928,-0.173952,1.287865,-0.027419,1.277989,0.172877,-0.133455,3.125575,-2.093530,-0.434649,-8.223616,0.877911,0.912073
3.170000,0.259152,0.193292,1.495647,-0.161017,1.289489,-0.028775,1.308830,0.151989,-0.137753,3.042291,-2.083868,-0.424565,-8.431766,1.053420,1.104550
3.180000,0.257607,0.206194,1.495352,-0.147778,1.290905,-0.030174,1.338828,0.131206,-0.141940,2.956970,-2.072481,-0.412560,-8.630916,1.222961,1.296352
3.190000,0.256197,0.219110,1.495043,-0.134243,1.292113,-0.031614,1.367963,0.110545,-0.145998,2.869704,-2.059429,-0.398642,-8.820732,1.386454,1.487100
3.200000,0.254923,0.232036,1.494720,-0.120422,1.293116,-0.033093,1.396216,0.090022,-0.149907,2.780587,-2.044773,-0.382823,-9.000879,1.543818,1.676416
3.210000,0.253789,0.244971,1.494381,-0.106322,1.293914,-0.034611,1.423569,0.069655,-0.153648,2.689682,-2.028557,-0.365132,-9.170084,1.694563,1.864228
3.220000,0.252798,0.257914,1.494028,-0.091953,1.294510,-0.036166,1.450004,0.049456,-0.157203,2.597178,-2.010884,-0.345559,-9.329067,1.839072,2.049815
3.230000,0.251951,0.270861,1.493658,-0.077325,1.294904,-0.037755,1.475507,0.029442,-0.160553,2.503136,-1.991797,-0.324144,-9.477611,1.977314,2.232761
3.240000,0.251252,0.283811,1.493272,-0.062446,1.295099,-0.039376,1.500062,0.009625,-0.163680,2.407661,-1.971359,-0.300914,-9.615496,2.109259,2.412651
3.250000,0.250703,0.296762,1.492870,-0.047327,1.295097,-0.041027,1.523656,-0.009981,-0.166565,2.310862,-1.949633,-0.275903,-9.742504,2.234879,2.589070
3.260000,0.250306,0.309712,1.492452,-0.031976,1.294900,-0.042706,1.546275,-0.029364,-0.169192,2.212805,-1.926667,-0.249158,-9.857325,2.353744,2.761898
3.270000,0.250064,0.322660,1.492016,-0.016405,1.294511,-0.044410,1.567908,-0.048511,-0.171543,2.113704,-1.902561,-0.220692,-9.960964,2.466274,2.930387
3.280000,0.249979,0.335602,1.491563,-0.000622,1.293931,-0.046136,1.588546,-0.067411,-0.173601,2.013623,-1.877362,-0.190566,-10.053338,2.572488,3.094087
3.290000,0.250053,0.348538,1.491093,0.015363,1.293163,-0.047881,1.608178,-0.086054,-0.175349,1.912675,-1.851132,-0.158828,-10.134361,2.672405,3.252546
3.300000,0.250287,0.361465,1.490606,0.031539,1.292211,-0.049642,1.626797,-0.104431,-0.176772,1.810974,-1.823935,-0.125534,-10.203948,2.766045,3.405313
3.310000,0.250684,0.374381,1.490101,0.047895,1.291076,-0.051416,1.644395,-0.122530,-0.177855,1.708589,-1.795817,-0.090748,-10.260859,2.853035,3.552072
3.320000,0.251245,0.387286,1.489577,0.064423,1.289761,-0.053198,1.660967,-0.140344,-0.178582,1.605743,-1.766877,-0.054521,-10.306306,2.933834,3.692219
3.330000,0.251973,0.400176,1.489037,0.081111,1.288270,-0.054986,1.676508,-0.157865,-0.178940,1.502501,-1.737161,-0.016927,-10.340345,3.008511,3.825287
3.340000,0.252868,0.413050,1.488478,0.097950,1.286605,-0.056776,1.691016,-0.175085,-0.178916,1.398974,-1.706727,0.021960,-10.363032,3.077133,3.950808
3.350000,0.253932,0.425907,1.487901,0.114928,1.284769,-0.058563,1.704487,-0.191997,-0.178497,1.295278,-1.675638,0.062063,-10.374426,3.139768,4.068313
3.360000,0.255167,0.438745,1.487307,0.132036,1.282766,-0.060344,1.716921,-0.208596,-0.177671,1.191479,-1.643937,0.103305,-10.373472,3.196109,4.177164
3.370000,0.256574,0.451562,1.486694,0.149263,1.280598,-0.062115,1.728317,-0.224874,-0.176428,1.087795,-1.611718,0.145584,-10.361473,3.246643,4.277085
3.380000,0.258153,0.464357,1.486064,0.166599,1.278270,-0.063871,1.738677,-0.240828,-0.174756,0.984286,-1.579023,0.188815,-10.338620,3.291484,4.367630
3.390000,0.259906,0.477127,1.485417,0.184033,1.275783,-0.065609,1.748004,-0.256453,-0.172648,0.881059,-1.545907,0.232904,-10.305106,3.330744,4.448352
3.400000,0.261834,0.489872,1.484752,0.201556,1.273142,-0.067323,1.756300,-0.271745,-0.170096,0.778219,-1.512426,0.277748,-10.261123,3.364536,4.518803
3.410000,0.263937,0.502589,1.484070,0.219156,1.270349,-0.069009,1.763569,-0.286701,-0.167091,0.675833,-1.478621,0.323267,-10.205925,3.392644,4.577945
3.420000,0.266217,0.515278,1.483372,0.236824,1.267409,-0.070663,1.769818,-0.301317,-0.163629,0.574092,-1.444576,0.369297,-10.140759,3.415550,4.625995
3.430000,0.268674,0.527937,1.482657,0.254549,1.264324,-0.072280,1.775053,-0.315591,-0.159704,0.473050,-1.410327,0.415749,-10.065930,3.433410,4.662581
3.440000,0.271308,0.540564,1.481927,0.272321,1.261098,-0.073856,1.779282,-0.329523,-0.155313,0.372804,-1.375924,0.462509,-9.981746,3.446377,4.687329
3.450000,0.274120,0.553158,1.481180,0.290131,1.257735,-0.075385,1.782513,-0.343110,-0.150453,0.273446,-1.341415,0.509455,-9.888514,3.454604,4.699863
3.460000,0.277111,0.565718,1.480419,0.307968,1.254237,-0.076863,1.784754,-0.356351,-0.145123,0.175038,-1.306837,0.556506,-9.785898,3.457984,4.698738
3.470000,0.280280,0.578243,1.479643,0.325823,1.250609,-0.078286,1.786017,-0.369246,-0.139323,0.077727,-1.272259,0.603435,-9.674928,3.456964,4.684784
3.480000,0.283627,0.590730,1.478854,0.343685,1.246853,-0.079648,1.786312,-0.381796,-0.133055,-0.018434,-1.237712,0.650159,-9.555989,3.451730,4.657757
3.490000,0.287154,0.603179,1.478051,0.361546,1.242974,-0.080945,1.785652,-0.394001,-0.126321,-0.113368,-1.203237,0.696546,-9.429468,3.442468,4.617415
3.500000,0.290858,0.615589,1.477235,0.379395,1.238974,-0.082173,1.784049,-0.405861,-0.119126,-0.207000,-1.168875,0.742462,-9.295751,3.429364,4.563516
3.510000,0.294741,0.627959,1.476407,0.397224,1.234858,-0.083326,1.781517,-0.417379,-0.111473,-0.299270,-1.134656,0.787831,-9.154972,3.412440,4.494280
3.520000,0.298803,0.640286,1.475569,0.415023,1.230628,-0.084401,1.778069,-0.428555,-0.103371,-0.390089,-1.100631,0.832370,-9.007799,3.392065,4.411189
3.530000,0.303042,0.652571,1.474720,0.432782,1.226288,-0.085392,1.773720,-0.439392,-0.094829,-0.479406,-1.066825,0.876008,-8.854651,3.368445,4.314189
3.540000,0.307458,0.664811,1.473861,0.450494,1.221841,-0.086296,1.768486,-0.449892,-0.085855,-0.567164,-1.033272,0.918607,-8.695942,3.341787,4.203223
3.550000,0.312051,0.677007,1.472994,0.468149,1.217291,-0.087108,1.762382,-0.460058,-0.076461,-0.653308,-0.999999,0.960026,-8.532091,3.312296,4.078238
3.560000,0.316821,0.689157,1.472119,0.485739,1.212641,-0.087824,1.755425,-0.469893,-0.066658,-0.737782,-0.967033,1.000200,-8.363696,3.280139,3.937271
3.570000,0.321766,0.701260,1.471238,0.503255,1.207894,-0.088440,1.747632,-0.479400,-0.056461,-0.820559,-0.934403,1.038810,-8.190969,3.245566,3.782409
3.580000,0.326886,0.713315,1.470351,0.520689,1.203054,-0.088952,1.739020,-0.488583,-0.045887,-0.901589,-0.902129,1.075803,-8.014305,3.208788,3.613830
3.590000,0.332179,0.725320,1.469459,0.538032,1.198124,-0.089356,1.729606,-0.497444,-0.034951,-0.980834,-0.870233,1.111042,-7.834100,3.170016,3.431713
3.600000,0.337646,0.737277,1.468564,0.555278,1.193106,-0.089650,1.719409,-0.505989,-0.023672,-1.058260,-0.838735,1.144392,-7.650747,3.129461,3.236238
3.610000,0.343285,0.749182,1.467667,0.572418,1.188005,-0.089829,1.708447,-0.514220,-0.012069,-1.133816,-0.807654,1.175806,-7.465219,3.087441,3.025459
3.620000,0.349094,0.761037,1.466768,0.589445,1.182823,-0.089890,1.696739,-0.522143,-0.000164,-1.207531,-0.776995,1.204954,-7.277262,3.044045,2.801939
3.630000,0.355073,0.772839,1.465869,0.606350,1.177563,-0.089831,1.684303,-0.529762,0.012022,-1.279355,-0.746777,1.231804,-7.087200,2.999473,2.566117
3.640000,0.361221,0.784588,1.464972,0.623128,1.172229,-0.089649,1.671158,-0.537080,0.024464,-1.349269,-0.717009,1.256237,-6.895357,2.953921,2.318431
3.650000,0.367535,0.796283,1.464077,0.639771,1.166823,-0.089341,1.657324,-0.544103,0.037138,-1.417257,-0.687701,1.278135,-6.702058,2.907586,2.059320
3.660000,0.374016,0.807924,1.463185,0.656273,1.161348,-0.088905,1.642820,-0.550836,0.050019,-1.483273,-0.658870,1.297471,-6.508468,2.860945,1.787090
3.670000,0.380660,0.819510,1.462299,0.672626,1.155807,-0.088340,1.627665,-0.557282,0.063079,-1.547386,-0.630496,1.313937,-6.313967,2.813882,1.504573
3.680000,0.387468,0.831040,1.461419,0.688824,1.150203,-0.087643,1.611879,-0.563447,0.076288,-1.609550,-0.602594,1.327530,-6.118774,2.766563,1.212470
3.690000,0.394436,0.842513,1.460546,0.704861,1.144539,-0.086814,1.595481,-0.569336,0.089619,-1.669760,-0.575165,1.338157,-5.923110,2.719150,0.911480
3.700000,0.401564,0.853930,1.459683,0.720731,1.138817,-0.085851,1.578490,-0.574952,0.103041,-1.728011,-0.548210,1.345733,-5.727195,2.671807,0.602303
3.710000,0.408850,0.865290,1.458830,0.736429,1.133041,-0.084753,1.560927,-0.580302,0.116524,-1.784268,-0.521747,1.350254,-5.532146,2.625171,0.283730
3.720000,0.416292,0.876591,1.457988,0.751948,1.127212,-0.083520,1.542811,-0.585389,0.130036,-1.838614,-0.495727,1.351471,-5.337178,2.578875,-0.041397
3.730000,0.423889,0.887834,1.457160,0.767283,1.121334,-0.082152,1.524162,-0.590218,0.143543,-1.891012,-0.470168,1.349407,-5.142403,2.533024,-0.372144
3.740000,0.431637,0.899017,1.456346,0.782430,1.115408,-0.080649,1.504998,-0.594794,0.157013,-1.941464,-0.445065,1.344012,-4.947931,2.487724,-0.707578
3.750000,0.439536,0.910142,1.455547,0.797382,1.109439,-0.079012,1.485339,-0.599121,0.170412,-1.989972,-0.420411,1.335243,-4.753875,2.443081,-1.046765
3.760000,0.447584,0.921206,1.454766,0.812135,1.103427,-0.077242,1.465205,-0.603203,0.183707,-2.036524,-0.396214,1.323124,-4.560825,2.399537,-1.390205
3.770000,0.455778,0.932210,1.454003,0.826684,1.097375,-0.075339,1.444615,-0.607046,0.196863,-2.081169,-0.372433,1.307497,-4.368353,2.356820,-1.735356
3.780000,0.464117,0.943153,1.453260,0.841026,1.091287,-0.073305,1.423588,-0.610653,0.209845,-2.123893,-0.349074,1.288415,-4.176512,2.314994,-2.081109
3.790000,0.472598,0.954036,1.452537,0.855155,1.085163,-0.071142,1.402143,-0.614029,0.222620,-2.164702,-0.326130,1.265877,-3.985355,2.274122,-2.426357
3.800000,0.481220,0.964857,1.451837,0.869067,1.079007,-0.068853,1.380300,-0.617177,0.235151,-2.203603,-0.303589,1.239893,-3.794935,2.234270,-2.769990
3.810000,0.489979,0.975616,1.451161,0.882759,1.072820,-0.066440,1.358078,-0.620103,0.247406,-2.240549,-0.281533,1.210516,-3.606668,2.197824,-3.111650
3.820000,0.498874,0.986313,1.450509,0.896228,1.066606,-0.063906,1.335495,-0.622809,0.259350,-2.275677,-0.259733,1.177707,-3.419075,2.162242,-3.449387
3.830000,0.507903,0.996948,1.449883,0.909468,1.060365,-0.061254,1.312571,-0.625299,0.270949,-2.308932,-0.238286,1.141545,-3.232042,2.127302,-3.781998
3.840000,0.517063,1.007520,1.449284,0.922478,1.054100,-0.058488,1.289323,-0.627576,0.282170,-2.340320,-0.217185,1.102088,-3.045454,2.092786,-4.108284
3.850000,0.526351,1.018030,1.448714,0.935254,1.047814,-0.055612,1.265771,-0.629644,0.292980,-2.369843,-0.196429,1.059405,-2.859195,2.058472,-4.427043
3.860000,0.535767,1.028476,1.448172,0.947792,1.041508,-0.052630,1.241932,-0.631507,0.303348,-2.397576,-0.176109,1.013568,-2.671343,2.026498,-4.736859
3.870000,0.545307,1.038860,1.447661,0.960091,1.035185,-0.049547,1.217825,-0.633167,0.313242,-2.423351,-0.156006,0.964691,-2.483813,1.993997,-5.036774
3.880000,0.554968,1.049180,1.447182,0.972148,1.028846,-0.046367,1.193471,-0.634628,0.322632,-2.447253,-0.136233,0.912869,-2.296712,1.960462,-5.325612
3.890000,0.564749,1.059437,1.446734,0.983960,1.022493,-0.043096,1.168887,-0.635893,0.331490,-2.469287,-0.116802,0.858219,-2.110146,1.925382,-5.602199
3.900000,0.574646,1.069630,1.446320,0.995525,1.016128,-0.039739,1.144091,-0.636965,0.339787,-2.489459,-0.097732,0.800870,-1.924224,1.888250,-5.865362
3.910000,0.584658,1.079759,1.445940,1.006841,1.009754,-0.036302,1.119102,-0.637845,0.347498,-2.507920,-0.078683,0.740887,-1.735374,1.839381,-6.112067
3.920000,0.594782,1.089825,1.445594,1.017907,1.003372,-0.032791,1.093939,-0.638541,0.354597,-2.524334,-0.060541,0.678597,-1.547831,1.788565,-6.343226
3.930000,0.605016,1.099827,1.445284,1.028720,0.996984,-0.029212,1.068622,-0.639057,0.361062,-2.538883,-0.042916,0.614078,-1.362152,1.736417,-6.557891
3.940000,0.615356,1.109765,1.445010,1.039279,0.990591,-0.025572,1.043168,-0.639401,0.366872,-2.551586,-0.025815,0.547498,-1.178893,1.683550,-6.755116
3.950000,0.625800,1.119638,1.444773,1.049582,0.984196,-0.021877,1.017596,-0.639576,0.372006,-2.562470,-0.009245,0.479037,-0.998611,1.630580,-6.933953
3.960000,0.636347,1.129448,1.444573,1.059630,0.977800,-0.018134,0.991926,-0.639588,0.376445,-2.571381,0.006693,0.408751,-0.826625,1.580769,-7.090131
3.970000,0.646992,1.139194,1.444410,1.069421,0.971405,-0.014351,0.966174,-0.639443,0.380176,-2.578802,0.022255,0.337152,-0.658147,1.531760,-7.226434
3.980000,0.657734,1.148877,1.444286,1.078953,0.965012,-0.010533,0.940356,-0.639145,0.383184,-2.584556,0.037332,0.264291,-0.493151,1.483842,-7.342324
3.990000,0.668570,1.158495,1.444200,1.088228,0.958623,-0.006689,0.914488,-0.638698,0.385458,-2.588677,0.051936,0.190375,-0.331611,1.437307,-7.437260
4.000000,0.679498,1.168049,1.444152,1.097243,0.952239,-0.002827,0.888588,-0.638108,0.386989,-2.591199,0.066084,0.115617,-0.173501,1.392445,-7.510703
4.010000,0.690514,1.177540,1.444143,1.105999,0.945861,0.001048,0.862672,-0.637383,0.387767,-2.591948,0.079321,0.040080,-0.024098,1.361448,-7.558202
4.020000,0.701617,1.186966,1.444173,1.114496,0.939491,0.004926,0.836754,-0.636522,0.387789,-2.591454,0.092784,-0.035648,0.122576,1.331247,-7.583606
4.030000,0.712803,1.196329,1.444242,1.122734,0.933131,0.008801,0.810848,-0.635529,0.387053,-2.589503,0.105944,-0.111519,0.267198,1.300676,-7.586857
4.040000,0.724071,1.205629,1.444349,1.130713,0.926781,0.012665,0.784968,-0.634405,0.385559,-2.586114,0.118792,-0.187311,0.410442,1.268569,-7.567892
4.050000,0.735417,1.214865,1.444495,1.138434,0.920443,0.016510,0.759130,-0.633154,0.383308,-2.581297,0.131307,-0.262802,0.552986,1.233758,-7.526652
4.060000,0.746839,1.224038,1.444679,1.145896,0.914119,0.020328,0.733344,-0.631774,0.380303,-2.575380,0.143946,-0.337915,0.703724,1.182667,-7.459408
4.070000,0.758334,1.233147,1.444901,1.153101,0.907808,0.024113,0.707627,-0.630277,0.376553,-2.567590,0.155502,-0.412081,0.854105,1.128059,-7.370217
4.080000,0.769900,1.242194,1.445161,1.160049,0.901513,0.027857,0.681997,-0.628666,0.372065,-2.558300,0.166497,-0.485247,1.003799,1.070286,-7.259466
4.090000,0.781534,1.251178,1.445458,1.166741,0.895235,0.031552,0.656466,-0.626949,0.366852,-2.547518,0.176899,-0.557200,1.152474,1.009701,-7.127543
4.100000,0.793234,1.260099,1.445792,1.173179,0.888975,0.035192,0.631051,-0.625130,0.360926,-2.535255,0.186682,-0.627729,1.299800,0.946656,-6.974837
4.110000,0.804997,1.268957,1.446162,1.179363,0.882733,0.038768,0.605765,-0.623216,0.354301,-2.521636,0.195950,-0.696745,1.448188,0.878332,-6.798797
4.120000,0.816820,1.277754,1.446567,1.185295,0.876511,0.042276,0.580624,-0.621214,0.346997,-2.506422,0.204386,-0.763770,1.594228,0.808642,-6.603109
4.130000,0.828702,1.286488,1.447007,1.190976,0.870309,0.045706,0.555641,-0.619130,0.339033,-2.489761,0.212121,-0.828744,1.737255,0.738328,-6.388523
4.140000,0.840639,1.295160,1.447481,1.196408,0.864128,0.049054,0.530833,-0.616973,0.330430,-2.471689,0.219153,-0.891480,1.876601,0.668129,-6.155788
4.150000,0.852629,1.303770,1.447988,1.201593,0.857970,0.052313,0.506212,-0.614750,0.321211,-2.452244,0.225487,-0.951802,2.011601,0.598788,-5.905650
4.160000,0.864670,1.312319,1.448527,1.206533,0.851834,0.055476,0.481794,-0.612469,0.311401,-2.431305,0.230831,-1.009628,2.137340,0.538705,-5.636583
4.170000,0.876759,1.320807,1.449097,1.211230,0.845721,0.058539,0.457590,-0.610135,0.301028,-2.409325,0.235923,-1.064583,2.257919,0.480024,-5.351890
4.180000,0.888894,1.329234,1.449698,1.215685,0.839631,0.061495,0.433612,-0.607753,0.290119,-2.386165,0.240435,-1.116617,2.373190,0.422546,-5.052597
4.190000,0.901072,1.337600,1.450327,1.219903,0.833566,0.064340,0.409871,-0.605328,0.278706,-2.361879,0.244378,-1.165590,2.483008,0.366077,-4.739732
4.200000,0.913291,1.345905,1.450984,1.223884,0.827525,0.067068,0.386378,-0.602867,0.266818,-2.336523,0.247759,-1.211370,2.587226,0.310417,-4.414322
4.210000,0.925549,1.354150,1.451668,1.227631,0.821508,0.069675,0.363143,-0.600374,0.254489,-2.310202,0.250664,-1.253896,2.686927,0.253459,-4.075916
4.220000,0.937843,1.362335,1.452377,1.231148,0.815517,0.072156,0.340177,-0.597856,0.241752,-2.282860,0.252916,-1.292920,2.780584,0.197151,-3.727199
4.230000,0.950171,1.370461,1.453110,1.234436,0.809551,0.074508,0.317489,-0.595318,0.228642,-2.254612,0.254609,-1.328410,2.867898,0.141532,-3.369381
4.240000,0.962531,1.378527,1.453867,1.237498,0.803611,0.076728,0.295088,-0.592765,0.215196,-2.225524,0.255749,-1.360281,2.948573,0.086638,-3.003668
4.250000,0.974920,1.386533,1.454645,1.240338,0.797696,0.078811,0.272981,-0.590204,0.201449,-2.195664,0.256344,-1.388461,3.022310,0.032508,-2.631270
4.260000,0.987337,1.394481,1.455443,1.242959,0.791807,0.080756,0.251177,-0.587640,0.187439,-2.165078,0.256417,-1.412910,3.088221,-0.021195,-2.252849
4.270000,0.999779,1.402369,1.456259,1.245363,0.785943,0.082559,0.229681,-0.585078,0.173203,-2.133898,0.255940,-1.433528,3.146671,-0.074015,-1.870225
4.280000,1.012243,1.410199,1.457093,1.247554,0.780105,0.084219,0.208501,-0.582523,0.158781,-2.102171,0.254940,-1.450305,3.197438,-0.125868,-1.484672
4.290000,1.024729,1.417971,1.457943,1.249534,0.774293,0.085734,0.187640,-0.579981,0.144210,-2.069975,0.253426,-1.463216,3.240295,-0.176672,-1.097466
4.300000,1.037233,1.425685,1.458807,1.251307,0.768506,0.087103,0.167103,-0.577456,0.129529,-2.037392,0.251410,-1.472253,3.275018,-0.226342,-0.709881
4.310000,1.049754,1.433342,1.459685,1.252877,0.762744,0.088325,0.146893,-0.574954,0.114778,-2.004444,0.248906,-1.477400,3.299904,-0.274860,-0.323617
4.320000,1.062290,1.440940,1.460573,1.254246,0.757006,0.089399,0.127014,-0.572480,0.099994,-1.971356,0.245920,-1.478713,3.316388,-0.322071,0.060529
4.330000,1.074839,1.448482,1.461472,1.255418,0.751294,0.090325,0.107467,-0.570037,0.085217,-1.938145,0.242469,-1.476200,3.324424,-0.367885,0.441333
4.340000,1.087398,1.455966,1.462379,1.256397,0.745606,0.091103,0.088252,-0.567632,0.070483,-1.904896,0.238567,-1.469902,3.323970,-0.412210,0.817573
4.350000,1.099966,1.463394,1.463294,1.257185,0.739941,0.091735,0.069369,-0.565267,0.055831,-1.871694,0.234230,-1.459868,3.314981,-0.454957,1.188027
4.360000,1.112541,1.470765,1.464214,1.257785,0.734300,0.092220,0.050818,-0.562949,0.041298,-1.838554,0.229474,-1.446111,3.295646,-0.496030,1.550131
4.370000,1.125121,1.478080,1.465138,1.258202,0.728682,0.092561,0.032597,-0.560679,0.026921,-1.805730,0.224315,-1.428833,3.267905,-0.535343,1.904167
4.380000,1.137704,1.485339,1.466064,1.258438,0.723086,0.092759,0.014702,-0.558464,0.012733,-1.773224,0.218773,-1.408058,3.231931,-0.572806,2.249076
4.390000,1.150289,1.492542,1.466992,1.258497,0.717512,0.092816,-0.002869,-0.556305,-0.001229,-1.741118,0.212866,-1.383885,3.187897,-0.608330,2.583800
4.400000,1.162874,1.499689,1.467920,1.258382,0.711960,0.092735,-0.020122,-0.554207,-0.014933,-1.709492,0.206613,-1.356420,3.135975,-0.641824,2.907281
4.410000,1.175456,1.506781,1.468847,1.258096,0.706428,0.092519,-0.037060,-0.552174,-0.028346,-1.678357,0.200030,-1.325696,3.074635,-0.673054,3.216318
4.420000,1.188035,1.513818,1.469770,1.257642,0.700916,0.092170,-0.053691,-0.550208,-0.041437,-1.647948,0.193153,-1.292042,3.005962,-0.702092,3.512256
4.430000,1.200609,1.520800,1.470690,1.257023,0.695424,0.091691,-0.070021,-0.548312,-0.054177,-1.618261,0.185996,-1.255497,2.930336,-0.728866,3.794300
4.440000,1.213175,1.527726,1.471604,1.256242,0.689950,0.091087,-0.086059,-0.546489,-0.066538,-1.589363,0.178583,-1.216205,2.848138,-0.753302,4.061652
4.450000,1.225733,1.534599,1.472511,1.255303,0.684494,0.090362,-0.101811,-0.544741,-0.078493,-1.561319,0.170938,-1.174316,2.759749,-0.775329,4.313516
4.460000,1.238281,1.541416,1.473410,1.254207,0.679055,0.089519,-0.117288,-0.543071,-0.090015,-1.534135,0.163075,-1.129882,2.664216,-0.794611,4.546393
4.470000,1.250817,1.548180,1.474301,1.252958,0.673632,0.088563,-0.132497,-0.541480,-0.101083,-1.507992,0.155043,-1.083323,2.563418,-0.811371,4.762521
4.480000,1.263339,1.554889,1.475181,1.251558,0.668225,0.087499,-0.147451,-0.539970,-0.111675,-1.482882,0.146856,-1.034689,2.457899,-0.825569,4.961434
4.490000,1.275847,1.561544,1.476051,1.250010,0.662832,0.086331,-0.162159,-0.538543,-0.121770,-1.458848,0.138540,-0.984153,2.348204,-0.837164,5.142667
4.500000,1.288339,1.568146,1.476908,1.248316,0.657454,0.085065,-0.176632,-0.537200,-0.131352,-1.435930,0.130121,-0.931896,2.234878,-0.846117,5.305754
4.510000,1.300813,1.574693,1.477752,1.246478,0.652088,0.083706,-0.190881,-0.535941,-0.140402,-1.414134,0.121613,-0.877983,2.117773,-0.852052,5.447283
4.520000,1.313268,1.581188,1.478581,1.244499,0.646735,0.082259,-0.204918,-0.534768,-0.148907,-1.393552,0.113074,-0.822881,1.998211,-0.855305,5.570097
4.530000,1.325703,1.587628,1.479396,1.242380,0.641392,0.080730,-0.218756,-0.533680,-0.156856,-1.374175,0.104516,-0.766644,1.876821,-0.855878,5.674091
4.540000,1.338115,1.594015,1.480196,1.240124,0.636061,0.079124,-0.232406,-0.532678,-0.164237,-1.356019,0.095966,-0.709462,1.754232,-0.853771,5.759161
4.550000,1.350505,1.600349,1.480979,1.237733,0.630739,0.077447,-0.245880,-0.531760,-0.171042,-1.339093,0.087450,-0.651524,1.631074,-0.848985,5.825202
4.560000,1.362869,1.606630,1.481744,1.235207,0.625425,0.075705,-0.259192,-0.530928,-0.177264,-1.323399,0.078980,-0.592908,1.508019,-0.841156,5.869238
4.570000,1.375208,1.612858,1.482493,1.232549,0.620120,0.073903,-0.272352,-0.530181,-0.182899,-1.308932,0.070619,-0.534074,1.385648,-0.830695,5.894388
4.580000,1.387520,1.619033,1.483222,1.229760,0.614821,0.072049,-0.285374,-0.529516,-0.187945,-1.295682,0.062375,-0.475083,1.264586,-0.817648,5.900899
4.590000,1.399803,1.625154,1.483933,1.226842,0.609529,0.070146,-0.298270,-0.528933,-0.192401,-1.283634,0.054274,-0.416118,1.145457,-0.802060,5.889018
4.600000,1.412056,1.631223,1.484625,1.223795,0.604242,0.068203,-0.311051,-0.528430,-0.196268,-1.272764,0.046342,-0.357363,1.028884,-0.783976,5.858992
4.610000,1.424279,1.637239,1.485297,1.220621,0.598960,0.066223,-0.323729,-0.528005,-0.199549,-1.263075,0.038590,-0.298899,0.916234,-0.763110,5.808585
4.620000,1.436468,1.643202,1.485950,1.217321,0.593682,0.064213,-0.336316,-0.527657,-0.202248,-1.254460,0.031073,-0.241138,0.807299,-0.739880,5.740832
4.630000,1.448625,1.649113,1.486582,1.213895,0.588407,0.062180,-0.348822,-0.527383,-0.204374,-1.246915,0.023800,-0.184139,0.702611,-0.714373,5.656283
4.640000,1.460746,1.654971,1.487193,1.210345,0.583134,0.060128,-0.361258,-0.527180,-0.205934,-1.240392,0.016793,-0.128066,0.602705,-0.686676,5.555489
4.650000,1.472831,1.660776,1.487784,1.206670,0.577863,0.058063,-0.373633,-0.527046,-0.206939,-1.234843,0.010073,-0.073081,0.508113,-0.656875,5.439002
4.660000,1.484879,1.666528,1.488354,1.202872,0.572593,0.055991,-0.385958,-0.526978,-0.207399,-1.230261,0.003652,-0.019264,0.420651,-0.624805,5.305522
4.670000,1.496888,1.672227,1.488904,1.198951,0.567323,0.053917,-0.398241,-0.526972,-0.207329,-1.226466,-0.002428,0.033064,0.339414,-0.590836,5.157677
4.680000,1.508857,1.677874,1.489433,1.194908,0.562053,0.051846,-0.410490,-0.527025,-0.206743,-1.223451,-0.008159,0.083845,0.264777,-0.555083,4.996245
4.690000,1.520786,1.683469,1.489941,1.190742,0.556783,0.049784,-0.422713,-0.527134,-0.205658,-1.221148,-0.013524,0.132946,0.197116,-0.517664,4.822002
4.700000,1.532672,1.689010,1.490428,1.186454,0.551511,0.047734,-0.434915,-0.527294,-0.204090,-1.219484,-0.018507,0.180245,0.136807,-0.478696,4.635727
4.710000,1.544515,1.694499,1.490896,1.182043,0.546237,0.045703,-0.447105,-0.527503,-0.202059,-1.218448,-0.023098,0.225666,0.085814,-0.438160,4.437125
4.720000,1.556312,1.699935,1.491343,1.177512,0.540960,0.043695,-0.459286,-0.527755,-0.199584,-1.217812,-0.027272,0.269000,0.042731,-0.396327,4.228177
4.730000,1.568064,1.705318,1.491770,1.172858,0.535681,0.041713,-0.471463,-0.528047,-0.196686,-1.217567,-0.031021,0.310198,0.007741,-0.353329,4.009791
4.740000,1.579769,1.710648,1.492177,1.168082,0.530399,0.039762,-0.483638,-0.528374,-0.193387,-1.217630,-0.034335,0.349168,-0.018974,-0.309300,3.782878
4.750000,1.591426,1.715926,1.492565,1.163185,0.525114,0.037847,-0.495816,-0.528732,-0.189710,-1.217918,-0.037204,0.385830,-0.037232,-0.264374,3.548345
4.760000,1.603032,1.721151,1.492934,1.158166,0.519825,0.035969,-0.507998,-0.529117,-0.185678,-1.218410,-0.039620,0.420123,-0.045225,-0.218675,3.306841
4.770000,1.614588,1.726322,1.493284,1.153025,0.514531,0.034134,-0.520184,-0.529523,-0.181316,-1.218866,-0.041576,0.451959,-0.044596,-0.172347,3.059567
4.780000,1.626093,1.731441,1.493617,1.147762,0.509234,0.032344,-0.532375,-0.529947,-0.176647,-1.219273,-0.043065,0.481298,-0.035362,-0.125526,2.807465
4.790000,1.637543,1.736507,1.493931,1.142378,0.503932,0.030602,-0.544569,-0.530383,-0.171698,-1.219545,-0.044085,0.508096,-0.017540,-0.078346,2.551476
4.800000,1.648940,1.741520,1.494229,1.136871,0.498626,0.028911,-0.556765,-0.530827,-0.166494,-1.219596,-0.044632,0.532318,0.008854,-0.030943,2.292540
4.810000,1.660280,1.746480,1.494510,1.131242,0.493316,0.027273,-0.568961,-0.531274,-0.161061,-1.219396,-0.044700,0.553921,0.045231,0.016445,2.032081
4.820000,1.671564,1.751386,1.494775,1.125492,0.488001,0.025690,-0.581152,-0.531719,-0.155424,-1.218727,-0.044298,0.572934,0.089971,0.063798,1.770498
4.830000,1.682790,1.756240,1.495024,1.119619,0.482681,0.024165,-0.593334,-0.532158,-0.149611,-1.217569,-0.043424,0.589330,0.142880,0.110996,1.508674
4.840000,1.693956,1.761040,1.495258,1.113625,0.477358,0.022699,-0.605501,-0.532586,-0.143646,-1.215843,-0.042079,0.603110,0.203767,0.157916,1.247489
4.850000,1.705062,1.765787,1.495478,1.107509,0.472030,0.021293,-0.617648,-0.532998,-0.137557,-1.213468,-0.040267,0.614285,0.272439,0.204435,0.987826
4.860000,1.716106,1.770480,1.495684,1.101272,0.466698,0.019948,-0.629769,-0.533390,-0.131370,-1.210411,-0.037985,0.622831,0.349771,0.250239,0.731650
4.870000,1.727087,1.775121,1.495877,1.094914,0.461362,0.018665,-0.641854,-0.533756,-0.125109,-1.206496,-0.035256,0.628880,0.434373,0.295421,0.478627
4.880000,1.738004,1.779708,1.496058,1.088435,0.456023,0.017446,-0.653896,-0.534093,-0.118801,-1.201700,-0.032079,0.632417,0.525923,0.339883,0.229506
4.890000,1.748855,1.784241,1.496226,1.081836,0.450680,0.016290,-0.665885,-0.534396,-0.112469,-1.195956,-0.028461,0.633485,0.624098,0.383527,-0.014965
4.900000,1.759640,1.788721,1.496384,1.075118,0.445335,0.015197,-0.677811,-0.534661,-0.106139,-1.189197,-0.024411,0.632135,0.728575,0.426252,-0.254036
4.910000,1.770357,1.793148,1.496530,1.068280,0.439987,0.014167,-0.689665,-0.534883,-0.099835,-1.181389,-0.019930,0.628366,0.839658,0.467722,-0.485461
4.920000,1.781005,1.797521,1.496667,1.061325,0.434637,0.013200,-0.701435,-0.535058,-0.093579,-1.172414,-0.015050,0.622382,0.956321,0.508106,-0.710172
4.930000,1.791583,1.801841,1.496795,1.054252,0.429286,0.012295,-0.713110,-0.535183,-0.087395,-1.162245,-0.009772,0.614187,1.078164,0.547334,-0.927603
4.940000,1.802090,1.806107,1.496913,1.047063,0.423934,0.011451,-0.724676,-0.535252,-0.081303,-1.150834,-0.004107,0.603856,1.204788,0.585337,-1.137189
4.950000,1.812524,1.810319,1.497024,1.039759,0.418581,0.010668,-0.736122,-0.535264,-0.075324,-1.138135,0.001931,0.591471,1.335792,0.622046,-1.338363
4.960000,1.822885,1.814478,1.497127,1.032341,0.413229,0.009945,-0.747434,-0.535213,-0.069481,-1.124112,0.008340,0.577050,1.470959,0.657132,-1.528843
4.970000,1.833171,1.818584,1.497223,1.024811,0.407877,0.009278,-0.758600,-0.535096,-0.063790,-1.108712,0.015080,0.560848,1.609685,0.690816,-1.709991
4.980000,1.843381,1.822636,1.497313,1.017169,0.402527,0.008668,-0.769604,-0.534910,-0.058269,-1.091908,0.022151,0.542883,1.751548,0.723060,-1.881452
4.990000,1.853514,1.826634,1.497397,1.009419,0.397179,0.008112,-0.780433,-0.534652,-0.052937,-1.073672,0.029537,0.523253,1.896127,0.753828,-2.042871
5.000000,1.863569,1.830579,1.497475,1.001561,0.391834,0.007609,-0.791073,-0.534318,-0.047810,-1.053978,0.037223,0.502060,2.043001,0.783081,-2.193892
5.010000,1.873544,1.834471,1.497549,0.993598,0.386493,0.007155,-0.801508,-0.533906,-0.042902,-1.032799,0.045202,0.479341,2.191585,0.810548,-2.332410
5.020000,1.883440,1.838309,1.497618,0.985532,0.381157,0.006750,-0.811724,-0.533413,-0.038227,-1.010134,0.053439,0.455370,2.341640,0.836453,-2.460035
5.030000,1.893255,1.842094,1.497684,0.977365,0.375825,0.006390,-0.821705,-0.532837,-0.033799,-0.985963,0.061926,0.430178,2.492762,0.860788,-2.576625
5.040000,1.902987,1.845826,1.497746,0.969099,0.370500,0.006073,-0.831438,-0.532174,-0.029627,-0.960277,0.070649,0.403875,2.644551,0.883543,-2.682040
5.050000,1.912636,1.849504,1.497806,0.960737,0.365182,0.005797,-0.840906,-0.531423,-0.025724,-0.933071,0.079592,0.376575,2.796603,0.904710,-2.776137
5.060000,1.922202,1.853129,1.497862,0.952282,0.359872,0.005558,-0.850094,-0.530581,-0.022100,-0.904329,0.088746,0.348326,2.948113,0.924091,-2.857143
5.070000,1.931682,1.856702,1.497917,0.943736,0.354571,0.005354,-0.858987,-0.529647,-0.018760,-0.874092,0.098077,0.319397,3.099132,0.941889,-2.926750
5.080000,1.941076,1.860221,1.497970,0.935103,0.349279,0.005182,-0.867571,-0.528619,-0.015714,-0.842349,0.107578,0.289828,3.249308,0.958116,-2.985018
5.090000,1.950384,1.863687,1.498021,0.926386,0.343999,0.005038,-0.875829,-0.527495,-0.012966,-0.809110,0.117234,0.259734,3.398287,0.972788,-3.032007
5.100000,1.959603,1.867101,1.498070,0.917587,0.338730,0.004921,-0.883748,-0.526274,-0.010520,-0.774389,0.127029,0.229226,3.545718,0.985917,-3.067775
5.110000,1.968735,1.870462,1.498119,0.908712,0.333474,0.004827,-0.891312,-0.524954,-0.008383,-0.738182,0.136952,0.198360,3.690738,0.997387,-3.090972
5.120000,1.977777,1.873770,1.498167,0.899762,0.328231,0.004753,-0.898507,-0.523535,-0.006554,-0.700559,0.146977,0.167380,3.833567,1.007359,-3.103240
5.130000,1.986730,1.877027,1.498214,0.890743,0.323003,0.004695,-0.905319,-0.522014,-0.005035,-0.661519,0.157095,0.136331,3.973914,1.015861,-3.104810
5.140000,1.995592,1.880231,1.498261,0.881657,0.317791,0.004651,-0.911733,-0.520392,-0.003827,-0.621090,0.167290,0.105318,4.111490,1.022926,-3.095914
5.150000,2.004363,1.883382,1.498307,0.872510,0.312596,0.004617,-0.917736,-0.518668,-0.002928,-0.579299,0.177548,0.074446,4.246004,1.028582,-3.076785
5.160000,2.013042,1.886483,1.498353,0.863304,0.307418,0.004591,-0.923314,-0.516841,-0.002338,-0.536162,0.187859,0.043773,4.376706,1.032804,-3.046556
5.170000,2.021629,1.889531,1.498399,0.854045,0.302259,0.004570,-0.928455,-0.514911,-0.002052,-0.491757,0.198202,0.013498,4.503823,1.035685,-3.006691
5.180000,2.030123,1.892528,1.498445,0.844736,0.297120,0.004549,-0.933145,-0.512877,-0.002066,-0.446099,0.208568,-0.016330,4.627121,1.037260,-2.957558
5.190000,2.038523,1.895473,1.498490,0.835383,0.292002,0.004527,-0.937373,-0.510740,-0.002377,-0.399228,0.218943,-0.045623,4.746366,1.037566,-2.899521
5.200000,2.046830,1.898368,1.498535,0.825991,0.286906,0.004501,-0.941126,-0.508498,-0.002977,-0.351186,0.229315,-0.074292,4.861324,1.036640,-2.832948
5.210000,2.055043,1.901212,1.498580,0.816563,0.281832,0.004467,-0.944392,-0.506153,-0.003860,-0.302003,0.239672,-0.102285,4.971421,1.034527,-2.757454
5.220000,2.063162,1.904005,1.498625,0.807104,0.276783,0.004423,-0.947162,-0.503705,-0.005020,-0.251758,0.250002,-0.129449,5.076806,1.031254,-2.674248
5.230000,2.071185,1.906747,1.498669,0.797621,0.271759,0.004366,-0.949424,-0.501153,-0.006447,-0.200483,0.260293,-0.155745,5.177286,1.026856,-2.583789
5.240000,2.079114,1.909440,1.498712,0.788118,0.266760,0.004293,-0.951169,-0.498499,-0.008132,-0.148229,0.270535,-0.181102,5.272669,1.021368,-2.486535
5.250000,2.086947,1.912083,1.498754,0.778599,0.261789,0.004202,-0.952386,-0.495743,-0.010065,-0.095047,0.280717,-0.205455,5.362763,1.014826,-2.382944
5.260000,2.094686,1.914676,1.498796,0.769072,0.256846,0.004091,-0.953067,-0.492885,-0.012237,-0.040986,0.290826,-0.228757,5.447211,1.007334,-2.273084
5.270000,2.102329,1.917220,1.498836,0.759540,0.251932,0.003957,-0.953203,-0.489927,-0.014637,0.013885,0.300857,-0.250916,5.526005,0.998851,-2.157852
5.280000,2.109877,1.919715,1.498875,0.750009,0.247048,0.003797,-0.952786,-0.486868,-0.017252,0.069515,0.310799,-0.271898,5.598975,0.989402,-2.037754
5.290000,2.117329,1.922161,1.498912,0.740486,0.242195,0.003611,-0.951810,-0.483711,-0.020070,0.125845,0.320642,-0.291657,5.665947,0.979015,-1.913297
5.300000,2.124686,1.924559,1.498947,0.730975,0.237374,0.003395,-0.950267,-0.480456,-0.023081,0.182813,0.330377,-0.310151,5.726750,0.967718,-1.784986
5.310000,2.131949,1.926908,1.498980,0.721483,0.232586,0.003149,-0.948152,-0.477104,-0.026269,0.240358,0.339989,-0.327347,5.781225,0.955648,-1.653292
5.320000,2.139116,1.929210,1.499010,0.712014,0.227832,0.002869,-0.945458,-0.473657,-0.029623,0.298416,0.349482,-0.343209,5.829186,0.942707,-1.518761
5.330000,2.146189,1.931465,1.499037,0.702575,0.223113,0.002556,-0.942182,-0.470115,-0.033129,0.356920,0.358841,-0.357714,5.870458,0.928910,-1.381904
5.340000,2.153168,1.933673,1.499061,0.693172,0.218430,0.002206,-0.938319,-0.466480,-0.036773,0.415802,0.368057,-0.370841,5.904868,0.914268,-1.243232
5.350000,2.160053,1.935834,1.499081,0.683811,0.213784,0.001820,-0.933865,-0.462754,-0.040541,0.474993,0.377123,-0.382574,5.932242,0.898796,-1.103255
5.360000,2.166844,1.937949,1.499097,0.674497,0.209175,0.001395,-0.928818,-0.458938,-0.044419,0.534416,0.386025,-0.392892,5.952565,0.882645,-0.962769
5.370000,2.173543,1.940017,1.499109,0.665237,0.204605,0.000931,-0.923176,-0.455034,-0.048394,0.594013,0.394767,-0.401816,5.965485,0.865673,-0.821964
5.380000,2.180149,1.942041,1.499116,0.656035,0.200075,0.000427,-0.916938,-0.451044,-0.052451,0.653701,0.403336,-0.409332,5.970809,0.847877,-0.681317
5.390000,2.186664,1.944019,1.499117,0.646900,0.195585,-0.000118,-0.910102,-0.446968,-0.056576,0.713403,0.411722,-0.415444,5.968345,0.829253,-0.541302
5.400000,2.193087,1.945953,1.499113,0.637835,0.191136,-0.000705,-0.902670,-0.442810,-0.060755,0.773041,0.419918,-0.420162,5.957898,0.809798,-0.402395
5.410000,2.199421,1.947842,1.499103,0.628848,0.186729,-0.001333,-0.894642,-0.438570,-0.064975,0.832524,0.427909,-0.423476,5.939514,0.789654,-0.265627
5.420000,2.205665,1.949687,1.499086,0.619945,0.182365,-0.002004,-0.886020,-0.434252,-0.069220,0.891793,0.435702,-0.425456,5.912732,0.768654,-0.130851
5.430000,2.211820,1.951489,1.499063,0.611130,0.178044,-0.002718,-0.876807,-0.429857,-0.073479,0.950750,0.443280,-0.426101,5.877331,0.746777,0.001527
5.440000,2.217887,1.953248,1.499032,0.602410,0.173768,-0.003474,-0.867006,-0.425387,-0.077738,1.009310,0.450634,-0.425435,5.833087,0.724001,0.131096
5.450000,2.223868,1.954965,1.498993,0.593792,0.169536,-0.004273,-0.856622,-0.420845,-0.081984,1.067382,0.457757,-0.423489,5.779778,0.700306,0.257451
5.460000,2.229764,1.956639,1.498946,0.585280,0.165351,-0.005114,-0.845661,-0.416233,-0.086203,1.124865,0.464632,-0.420268,5.717429,0.675802,0.379430
5.470000,2.235574,1.958272,1.498891,0.576880,0.161212,-0.005997,-0.834127,-0.411553,-0.090385,1.181688,0.471263,-0.415880,5.645540,0.650320,0.497471
5.480000,2.241302,1.959864,1.498826,0.568599,0.157120,-0.006921,-0.822030,-0.406809,-0.094517,1.237743,0.477635,-0.410333,5.563859,0.623822,0.611258
5.490000,2.246947,1.961415,1.498752,0.560442,0.153076,-0.007887,-0.809375,-0.402002,-0.098588,1.292931,0.483736,-0.403670,5.472134,0.596272,0.720475
5.500000,2.252511,1.962925,1.498668,0.552414,0.149080,-0.008893,-0.796174,-0.397135,-0.102587,1.347151,0.489557,-0.395940,5.370112,0.567632,0.824807
5.510000,2.257995,1.964396,1.498574,0.544520,0.145134,-0.009938,-0.782436,-0.392212,-0.106503,1.400291,0.495081,-0.387157,5.257726,0.537966,0.923072
5.520000,2.263402,1.965828,1.498469,0.536767,0.141236,-0.011022,-0.768172,-0.387234,-0.110327,1.452261,0.500308,-0.377458,5.134515,0.507124,1.015927
5.530000,2.268731,1.967221,1.498354,0.529158,0.137389,-0.012144,-0.753395,-0.382206,-0.114049,1.502944,0.505220,-0.366857,5.000206,0.475055,1.103163
5.540000,2.273985,1.968576,1.498226,0.521700,0.133592,-0.013303,-0.738118,-0.377131,-0.117661,1.552228,0.509805,-0.355414,4.854522,0.441710,1.184569
5.550000,2.279166,1.969893,1.498087,0.514398,0.129847,-0.014497,-0.722356,-0.372011,-0.121155,1.599996,0.514049,-0.343186,4.697190,0.407039,1.259936
5.560000,2.284274,1.971173,1.497936,0.507255,0.126152,-0.015726,-0.706124,-0.366851,-0.124522,1.646128,0.517939,-0.330201,4.528016,0.371048,1.328167
5.570000,2.289311,1.972416,1.497773,0.500277,0.122510,-0.016987,-0.689439,-0.361654,-0.127757,1.690512,0.521463,-0.316604,4.346633,0.333625,1.390050
5.580000,2.294280,1.973624,1.497596,0.493467,0.118919,-0.018280,-0.672320,-0.356423,-0.130852,1.733020,0.524606,-0.302421,4.152756,0.294715,1.445482
5.590000,2.299181,1.974795,1.497407,0.486832,0.115381,-0.019604,-0.654785,-0.351163,-0.133803,1.773525,0.527352,-0.287717,3.946100,0.254261,1.494364
5.600000,2.304017,1.975931,1.497204,0.480373,0.111896,-0.020956,-0.636856,-0.345878,-0.136605,1.811898,0.529686,-0.272556,3.726380,0.212208,1.536595
5.610000,2.308789,1.977033,1.496988,0.474096,0.108464,-0.022335,-0.618555,-0.340571,-0.139253,1.848009,0.531592,-0.256975,3.493286,0.168485,1.571256
5.620000,2.313500,1.978101,1.496757,0.468003,0.105085,-0.023740,-0.599904,-0.335247,-0.141743,1.881719,0.533051,-0.241117,3.246561,0.123052,1.599165
5.630000,2.318150,1.979135,1.496513,0.462099,0.101759,-0.025170,-0.580929,-0.329911,-0.144074,1.912893,0.534047,-0.225014,2.985923,0.075854,1.620319
5.640000,2.322742,1.980136,1.496254,0.456386,0.098486,-0.026621,-0.561655,-0.324568,-0.146243,1.941391,0.534562,-0.208733,2.711089,0.026836,1.634719
5.650000,2.327278,1.981105,1.495980,0.450867,0.095268,-0.028094,-0.542110,-0.319222,-0.148249,1.967067,0.534577,-0.192342,2.421779,-0.024056,1.642363
5.660000,2.331760,1.982042,1.495692,0.445544,0.092102,-0.029586,-0.522324,-0.313878,-0.150090,1.989780,0.534078,-0.175882,2.117627,-0.076977,1.642585
5.670000,2.336190,1.982947,1.495389,0.440421,0.088990,-0.031095,-0.502325,-0.308542,-0.151766,2.009373,0.533035,-0.159483,1.798445,-0.131869,1.636132
5.680000,2.340569,1.983822,1.495070,0.435498,0.085931,-0.032621,-0.482147,-0.303219,-0.153280,2.025698,0.531434,-0.143182,1.463959,-0.188776,1.623082
5.690000,2.344901,1.984666,1.494736,0.430778,0.082926,-0.034160,-0.461823,-0.297915,-0.154631,2.038600,0.529253,-0.127043,1.113898,-0.247739,1.603518
5.700000,2.349186,1.985480,1.494387,0.426262,0.079973,-0.035713,-0.441387,-0.292636,-0.155821,2.047923,0.526472,-0.111133,0.747990,-0.308802,1.577520
5.710000,2.353427,1.986266,1.494022,0.421951,0.077073,-0.037276,-0.420877,-0.287388,-0.156854,2.053507,0.523078,-0.095496,0.365950,-0.372223,1.544713
5.720000,2.357625,1.987022,1.493641,0.417845,0.074225,-0.038849,-0.400330,-0.282177,-0.157732,2.055188,0.519030,-0.080239,-0.032480,-0.437801,1.505688
5.730000,2.361784,1.987750,1.493245,0.413944,0.071429,-0.040430,-0.379786,-0.277009,-0.158460,2.052802,0.514315,-0.065403,-0.447569,-0.505554,1.460582
5.740000,2.365905,1.988451,1.492833,0.410249,0.068685,-0.042018,-0.359288,-0.271893,-0.159042,2.046180,0.508912,-0.051047,-0.879590,-0.575496,1.409531
5.750000,2.369990,1.989124,1.492405,0.406758,0.065991,-0.043611,-0.338877,-0.266834,-0.159483,2.035153,0.502798,-0.037231,-1.328812,-0.647644,1.352672
5.760000,2.374041,1.989771,1.491960,0.403471,0.063348,-0.045207,-0.318600,-0.261839,-0.159789,2.019535,0.495968,-0.024004,-1.795240,-0.722419,1.289930
5.770000,2.378060,1.990391,1.491500,0.400386,0.060754,-0.046806,-0.298503,-0.256917,-0.159965,1.999177,0.488360,-0.011442,-2.279443,-0.799382,1.221679
5.780000,2.382049,1.990986,1.491024,0.397500,0.058209,-0.048406,-0.278633,-0.252074,-0.160020,1.973886,0.479973,0.000412,-2.781723,-0.878500,1.148078
5.790000,2.386011,1.991556,1.490532,0.394812,0.055712,-0.050006,-0.259042,-0.247320,-0.159959,1.943481,0.470783,0.011503,-3.302384,-0.959737,1.069291
5.800000,2.389946,1.992100,1.490024,0.392318,0.053262,-0.051605,-0.239781,-0.242661,-0.159792,1.907776,0.460771,0.021781,-3.841728,-1.043062,0.985479
5.810000,2.393858,1.992621,1.489500,0.390015,0.050859,-0.053202,-0.220905,-0.238107,-0.159527,1.866547,0.449944,0.031194,-4.399143,-1.129156,0.896844
5.820000,2.397747,1.993118,1.488960,0.387899,0.048500,-0.054795,-0.202469,-0.233665,-0.159172,1.819688,0.438214,0.039700,-4.975959,-1.217182,0.803503
5.830000,2.401616,1.993591,1.488404,0.385964,0.046185,-0.056385,-0.184531,-0.229346,-0.158736,1.766962,0.425594,0.047249,-5.572591,-1.307018,0.705612
5.840000,2.405467,1.994042,1.487832,0.384206,0.043912,-0.057970,-0.167150,-0.225157,-0.158230,1.708169,0.412068,0.053798,-6.189455,-1.398542,0.603330
5.850000,2.409301,1.994469,1.487245,0.382619,0.041681,-0.059549,-0.150388,-0.221107,-0.157663,1.643104,0.397618,0.059302,-6.826966,-1.491632,0.496813
5.860000,2.413120,1.994875,1.486642,0.381196,0.039490,-0.061123,-0.134310,-0.217207,-0.157047,1.571559,0.382230,0.063720,-7.485538,-1.586168,0.386218
5.870000,2.416925,1.995259,1.486022,0.379930,0.037337,-0.062690,-0.118980,-0.213466,-0.156393,1.493321,0.365890,0.067013,-8.165587,-1.682027,0.271702
5.880000,2.420719,1.995622,1.485388,0.378814,0.035220,-0.064251,-0.104466,-0.209893,-0.155711,1.408174,0.348586,0.069142,-8.867528,-1.779087,0.153422
5.890000,2.424502,1.995964,1.484737,0.377838,0.033138,-0.065804,-0.090840,-0.206498,-0.155014,1.315897,0.330305,0.070069,-9.591776,-1.877228,0.031535
5.900000,2.428276,1.996285,1.484072,0.376994,0.031089,-0.067351,-0.078173,-0.203290,-0.154314,1.216263,0.311038,0.069761,-10.338745,-1.976327,-0.093802
5.910000,2.432042,1.996586,1.483390,0.376271,0.029072,-0.068890,-0.066540,-0.200280,-0.153623,1.109044,0.290775,0.068182,-11.108852,-2.076264,-0.222432
5.920000,2.435802,1.996867,1.482694,0.375659,0.027083,-0.070423,-0.056018,-0.197478,-0.152954,0.994007,0.269510,0.065302,-11.902512,-2.176916,-0.354197
5.930000,2.439556,1.997128,1.481982,0.375147,0.025121,-0.071950,-0.046687,-0.194893,-0.152321,0.870914,0.247235,0.061089,-12.720138,-2.278161,-0.488942
5.940000,2.443305,1.997369,1.481255,0.374721,0.023184,-0.073470,-0.038627,-0.192537,-0.151737,0.739523,0.223945,0.055514,-13.562147,-2.379879,-0.626508
5.950000,2.447051,1.997591,1.480513,0.374370,0.021270,-0.074985,-0.031925,-0.190418,-0.151216,0.599589,0.199636,0.048550,-14.428953,-2.481948,-0.766739
5.960000,2.450793,1.997794,1.479755,0.374078,0.019375,-0.076494,-0.026665,-0.188547,-0.150771,0.450860,0.174306,0.040170,-15.320972,-2.584246,-0.909478
5.970000,2.454532,1.997979,1.478983,0.373831,0.017498,-0.078000,-0.022938,-0.186935,-0.150417,0.293084,0.147951,0.030352,-16.238619,-2.686651,-1.054568
5.980000,2.458269,1.998145,1.478195,0.373614,0.015636,-0.079503,-0.020834,-0.185592,-0.150169,0.126001,0.120573,0.019072,-17.182308,-2.789043,-1.201852
5.990000,2.462005,1.998292,1.477393,0.373409,0.013785,-0.081004,-0.020449,-0.184527,-0.150041,-0.050650,0.092171,0.006308,-18.152455,-2.891298,-1.351172
6.000000,2.465738,1.998420,1.476575,0.373199,0.011944,-0.082504,-0.021880,-0.183752,-0.150048,-0.237138,0.062748,-0.007958,-19.149475,-2.993297,-1.502372
