time,x,y,z,vx,vy,vz,ax,ay,az,jx,jy,jz,sx,sy,sz
0.000000,-2.375441,-2.598522,1.359447,0.007080,-0.010818,0.020601,0.017141,0.056335,-0.002543,1.589328,0.534551,0.407951,32.064194,4.064900,9.488105
0.050000,-2.375087,-2.599063,1.360477,0.007937,-0.008001,0.020474,0.096607,0.083063,0.017854,3.192538,0.737796,0.882357,42.125526,6.172056,12.373721
0.100000,-2.374648,-2.599322,1.361495,0.016741,-0.002512,0.022386,0.336394,0.130115,0.085692,5.801881,1.151757,1.645323,37.461368,9.231869,9.778833
0.150000,-2.373413,-2.599314,1.362716,0.041576,0.005010,0.029043,0.676795,0.198238,0.182387,6.938675,1.660983,1.860240,9.855580,7.726093,-1.164004
0.200000,-2.370490,-2.598821,1.364399,0.084420,0.017312,0.040625,1.030262,0.296213,0.271716,6.787439,1.924366,1.528923,-9.548340,0.819367,-9.589468
0.250000,-2.364971,-2.597583,1.366778,0.144603,0.034631,0.056215,1.355539,0.390675,0.335279,5.983841,1.742920,0.901293,-19.936215,-5.123964,-14.088219
0.300000,-2.356030,-2.595358,1.370020,0.219974,0.056379,0.074153,1.628646,0.470505,0.361846,4.793817,1.411970,0.120101,-26.084061,-7.118214,-15.788884
0.350000,-2.342974,-2.591945,1.374194,0.307467,0.081682,0.092399,1.834921,0.531872,0.347289,3.375434,1.031098,-0.677595,-29.497098,-7.724472,-14.915567
0.400000,-2.325283,-2.587190,1.379260,0.403466,0.109567,0.108882,1.966189,0.573615,0.294086,1.844107,0.639523,-1.371456,-30.835209,-7.733521,-11.933752
0.450000,-2.302627,-2.580988,1.385082,0.504086,0.139043,0.121808,2.019331,0.595824,0.210144,0.291913,0.257746,-1.870970,-30.483816,-7.393781,-7.541632
0.500000,-2.274874,-2.573285,1.391441,0.605399,0.169149,0.129896,1.995381,0.599390,0.106989,-1.204274,-0.099856,-2.125619,-28.709453,-6.790771,-2.582136
0.550000,-2.242087,-2.564073,1.398072,0.703624,0.198982,0.132507,1.898904,0.585839,-0.002418,-2.579032,-0.421331,-2.129184,-25.735538,-5.964652,2.082150
0.600000,-2.204512,-2.553387,1.404692,0.795290,0.227733,0.129654,1.737477,0.557256,-0.105929,-3.777828,-0.696321,-1.917404,-21.794142,-4.948915,5.695264
0.650000,-2.162558,-2.541300,1.411037,0.877372,0.254708,0.121914,1.521121,0.516207,-0.194159,-4.758446,-0.916222,-1.559658,-17.147413,-3.782191,7.710481
0.700000,-2.116775,-2.527916,1.416883,0.947402,0.279354,0.110238,1.261633,0.465634,-0.261895,-5.492569,-1.074540,-1.146356,-12.074032,-2.507340,7.855362
0.750000,-2.067818,-2.513365,1.422061,1.003535,0.301271,0.095724,0.971864,0.408753,-0.308794,-5.965849,-1.166956,-0.774121,-6.830463,-1.163758,6.155113
0.800000,-2.016421,-2.497789,1.426456,1.044588,0.320229,0.079359,0.665048,0.348939,-0.339307,-6.175616,-1.190916,-0.530844,-1.606769,0.221933,2.918188
0.850000,-1.963359,-2.481342,1.429997,1.070040,0.336165,0.061794,0.354303,0.289661,-0.361879,-6.126526,-1.144763,-0.482303,3.501472,1.641663,-1.306716
0.900000,-1.909417,-2.464173,1.432635,1.080018,0.349195,0.043171,0.052395,0.234462,-0.387537,-5.825468,-1.026749,-0.661516,8.488959,3.103826,-5.791944
0.950000,-1.855358,-2.446422,1.434314,1.075279,0.359611,0.023040,-0.228244,0.186986,-0.428030,-5.277630,-0.834380,-1.061497,13.397967,4.621134,-9.703235
1.000000,-1.801889,-2.428212,1.434939,1.057194,0.367894,0.000368,-0.475368,0.151024,-0.493687,-4.485672,-0.564636,-1.631839,18.242664,6.189102,-12.181829
1.050000,-1.749638,-2.409633,1.434351,1.027743,0.374714,-0.026329,-0.676811,0.130523,-0.591214,-3.453364,-0.215470,-2.279680,22.917490,7.759034,-12.440666
1.100000,-1.699115,-2.390740,1.432306,0.989513,0.380946,-0.058753,-0.820704,0.129477,-0.721655,-2.193923,0.211267,-2.875906,27.116541,9.212898,-9.880409
1.150000,-1.650687,-2.371538,1.428475,0.945672,0.387662,-0.098494,-0.896204,0.151649,-0.878805,-0.741710,0.705820,-3.267721,30.297163,10.350640,-4.224871
1.200000,-1.604548,-2.351974,1.422457,0.899892,0.396111,-0.146634,-0.894875,0.200059,-1.048427,0.835794,1.246331,-3.298393,31.719952,10.901589,4.339425
1.250000,-1.560698,-2.331927,1.413812,0.856185,0.407668,-0.203337,-0.812624,0.276282,-1.208644,2.430286,1.795978,-2.833778,30.584623,10.568484,15.055029
1.300000,-1.518929,-2.311207,1.402123,0.818630,0.423739,-0.267498,-0.651846,0.379657,-1.331805,3.894256,2.303180,-1.792890,26.254334,9.103868,26.569202
1.350000,-1.478835,-2.289553,1.387062,0.791000,0.445633,-0.336518,-0.423199,0.506600,-1.387933,5.055719,2.706365,-0.176858,18.523251,6.404968,37.047329
1.400000,-1.439829,-2.266644,1.368471,0.776310,0.474399,-0.406292,-0.146275,0.650294,-1.349491,5.746581,2.943677,1.911843,7.845264,2.598597,44.453109
1.450000,-1.401204,-2.242113,1.346433,0.776373,0.510663,-0.471467,0.151459,0.800968,-1.196749,5.840245,2.966225,4.268453,-4.575532,-1.920915,46.971702
1.500000,-1.362192,-2.215578,1.321324,0.791456,0.554496,-0.525966,0.437750,0.946916,-0.922646,5.289028,2.751585,6.609013,-16.913510,-6.533175,43.482323
1.550000,-1.322058,-2.186664,1.293836,0.820148,0.605354,-0.563731,0.680362,1.076127,-0.535848,4.148894,2.312907,8.616685,-27.090812,-10.524000,33.925917
1.600000,-1.280177,-2.155042,1.264951,0.859492,0.662109,-0.579551,0.852639,1.178207,-0.060977,2.579947,1.699185,10.001605,-33.311740,-13.282644,19.407112
1.650000,-1.236109,-2.120453,1.235881,0.905412,0.723175,-0.569829,0.938357,1.246045,0.464313,0.817720,0.984643,10.557396,-34.583466,-14.496704,1.958272
1.700000,-1.189636,-2.082725,1.207968,0.953328,0.786713,-0.533120,0.934411,1.276671,0.994763,-0.878400,0.249515,10.197432,-31.012386,-14.261953,-15.954840
1.750000,-1.140776,-2.041782,1.182569,0.998853,0.850842,-0.470353,0.850517,1.270997,1.484056,-2.283518,-0.441552,8.961912,-23.755470,-13.055254,-31.994202
1.800000,-1.089751,-1.997641,1.160933,1.038380,0.913813,-0.384714,0.706060,1.232516,1.890954,-3.253947,-1.056011,6.998012,-14.659976,-11.577512,-44.383504
1.850000,-1.036938,-1.950400,1.144098,1.069459,0.974094,-0.281257,0.525122,1.165396,2.183857,-3.749516,-1.599303,4.523562,-5.739774,-10.523325,-52.108941
1.900000,-0.982805,-1.900231,1.132807,1.090892,1.030352,-0.166329,0.331108,1.072586,2.343310,-3.827924,-2.108343,1.787117,1.332704,-10.354350,-54.894940
1.950000,-0.927849,-1.847365,1.127465,1.102570,1.081352,-0.046926,0.142330,0.954561,2.362569,-3.616245,-2.634738,-0.965932,5.578028,-11.144760,-53.045124
2.000000,-0.872548,-1.792096,1.128115,1.105125,1.125808,0.069928,-0.030517,0.809112,2.246717,-3.270122,-3.222819,-3.517395,6.836479,-12.539674,-47.257866
2.050000,-0.817336,-1.734784,1.134458,1.099518,1.162263,0.177745,-0.184682,0.632279,2.010829,-2.932598,-3.888706,-5.691719,5.674205,-13.833540,-38.486909
2.100000,-0.762596,-1.675870,1.145889,1.086657,1.189036,0.271011,-0.323776,0.420241,1.677545,-2.702701,-4.606173,-7.366086,3.125082,-14.144565,-27.854084
2.150000,-0.708671,-1.615881,1.161559,1.067140,1.204287,0.345500,-0.454952,0.171662,1.274221,-2.620089,-5.303162,-8.477127,0.353791,-12.638518,-16.572507
2.200000,-0.655882,-1.555441,1.180439,1.041161,1.206203,0.398433,-0.585785,-0.110075,0.829832,-2.667322,-5.870025,-9.023337,-1.664958,-8.744374,-5.829692
2.250000,-0.604554,-1.495261,1.201402,1.008562,1.193280,0.428483,-0.721685,-0.415340,0.371887,-2.786585,-6.177600,-9.060096,-2.367652,-2.308625,3.389054
2.300000,-0.555026,-1.436113,1.223288,0.968993,1.164668,0.435622,-0.864444,-0.727835,-0.076177,-2.904087,-6.100887,-8.684431,-1.671749,6.345109,10.505274
2.350000,-0.507655,-1.378794,1.244964,0.922117,1.120496,0.420865,-1.012093,-1.025429,-0.496556,-2.953760,-5.543089,-8.009569,0.110680,16.453650,15.503563
2.400000,-0.462814,-1.324063,1.265374,0.867784,1.062126,0.385966,-1.159820,-1.282144,-0.877134,-2.893019,-4.455522,-7.134075,2.466345,26.921084,18.950024
2.450000,-0.420877,-1.272581,1.283561,0.806135,0.992282,0.333152,-1.301395,-1.470981,-1.209963,-2.707125,-2.850980,-6.114567,4.895796,36.454613,21.819982
2.500000,-0.382201,-1.224835,1.298689,0.737644,0.915027,0.264970,-1.430532,-1.567242,-1.488591,-2.403440,-0.810061,-4.952077,7.070143,43.705030,25.157897
2.550000,-0.347112,-1.181078,1.310058,0.663082,0.835558,0.184293,-1.541739,-1.551988,-1.705171,-2.000111,1.519523,-3.598777,8.888686,47.417758,29.666586
2.600000,-0.315893,-1.141279,1.317119,0.583470,0.759829,0.094453,-1.630543,-1.415290,-1.848469,-1.514571,3.931715,-1.985418,10.438840,46.616799,35.358698
2.650000,-0.288765,-1.105096,1.319503,0.500028,0.694029,-0.000554,-1.693196,-1.158816,-1.903713,-0.956227,6.181203,-0.062907,11.888088,40.828689,41.396078
2.700000,-0.265890,-1.071877,1.317063,0.414151,0.643947,-0.095918,-1.726166,-0.797170,-1.854759,-0.325762,8.014584,2.154190,13.353025,30.309504,46.201191
2.750000,-0.247350,-1.040701,1.309911,0.327411,0.614312,-0.186030,-1.725773,-0.357358,-1.688294,0.379075,9.212153,4.557212,14.794140,16.187891,47.852338
2.800000,-0.233149,-1.010445,1.298460,0.241573,0.608211,-0.264748,-1.688259,0.124046,-1.399038,1.153652,9.633373,6.939424,15.977508,0.413525,44.675572
2.850000,-0.223193,-0.979880,1.283437,0.158585,0.626716,-0.325934,-1.610407,0.605980,-0.994352,1.976826,9.253505,9.024769,16.525752,-14.569738,35.843558
2.900000,-0.217290,-0.947774,1.265867,0.080533,0.668809,-0.364183,-1.490576,1.049396,-0.496561,2.806227,8.176399,10.523779,16.047410,-26.404186,21.743364
2.950000,-0.215140,-0.912999,1.247018,0.009528,0.731656,-0.375590,-1.329785,1.423619,0.058026,3.581567,6.613087,11.199106,14.300819,-33.478155,3.950550
3.000000,-0.216337,-0.874608,1.228308,-0.052446,0.811171,-0.358380,-1.132419,1.710705,0.623349,4.236309,4.828583,10.918834,11.321751,-35.395181,-15.172009
3.050000,-0.220384,-0.831882,1.211180,-0.103714,0.902727,-0.313255,-0.906154,1.906478,1.149910,4.713742,3.073569,9.681905,7.442040,-33.043884,-33.066521
3.100000,-0.226709,-0.784335,1.196982,-0.143061,1.001819,-0.243389,-0.661045,2.018062,1.591540,4.980513,1.524195,7.612182,3.212356,-28.248399,-47.524156
3.150000,-0.234691,-0.731700,1.186841,-0.169819,1.104533,-0.154101,-0.408102,2.058897,1.911128,5.034978,0.248729,4.929489,-0.718128,-23.152227,-57.014246
3.200000,-0.243691,-0.673882,1.181572,-0.183872,1.207709,-0.052276,-0.157547,2.042935,2.084489,4.908700,-0.791028,1.910758,-3.777383,-19.559170,-60.775488
3.250000,-0.253078,-0.610929,1.181614,-0.185573,1.308826,0.054348,0.082768,1.979794,2.102204,4.657240,-1.707188,-1.148060,-5.632879,-18.430673,-58.740936
3.300000,-0.262248,-0.543000,1.187007,-0.175595,1.405688,0.157944,0.308177,1.872216,1.969683,4.345412,-2.634095,-3.963336,-6.239009,-19.668640,-51.402757
3.350000,-0.270637,-0.470360,1.197408,-0.154756,1.496048,0.251316,0.517309,1.716385,1.705870,4.033339,-3.674052,-6.288335,-5.824837,-22.229525,-39.714323
3.400000,-0.277724,-0.393395,1.212139,-0.123864,1.577327,0.328531,0.711511,1.504811,1.340849,3.762928,-4.857048,-7.934768,-4.845561,-24.507163,-25.040038
3.450000,-0.283024,-0.312627,1.230261,-0.083605,1.646529,0.385401,0.893602,1.230680,0.912393,3.548783,-6.124769,-8.792339,-3.853842,-24.846203,-9.083440
3.500000,-0.286084,-0.228742,1.250679,-0.034504,1.700395,0.419770,1.066389,0.892334,0.461615,3.377544,-7.341668,-8.843112,-3.346127,-22.043872,6.269093
3.550000,-0.286474,-0.142588,1.272238,0.023034,1.735762,0.431563,1.231356,0.496513,0.028082,3.214170,-8.329156,-8.165430,-3.648150,-15.704841,19.208126
3.600000,-0.283781,-0.055166,1.293835,0.088632,1.750046,0.422579,1.387806,0.059418,-0.354928,3.012729,-8.912152,-6.922300,-4.841011,-6.346773,28.323631
3.650000,-0.277611,0.032417,1.314496,0.161815,1.741704,0.396070,1.532629,-0.394702,-0.664148,2.730069,-8.963833,-5.333067,-6.745953,4.761017,32.889909
3.700000,-0.267599,0.119005,1.333442,0.241895,1.710576,0.356164,1.660813,-0.836965,-0.888234,2.338134,-8.436050,-3.633309,-9.015435,15.955724,33.003164
3.750000,-0.253421,0.203474,1.350113,0.327896,1.658008,0.307246,1.766442,-1.238307,-1.027479,1.828525,-7.368261,-2.032750,-11.255080,25.615887,29.512880
3.800000,-0.234809,0.284805,1.364167,0.418539,1.586745,0.253416,1.843665,-1.573791,-1.091509,1.212626,-5.874462,-0.682021,-13.080809,32.533543,23.763521
3.850000,-0.211567,0.362149,1.375454,0.512263,1.500628,0.198096,1.887705,-1.825753,-1.095681,0.520444,-4.114906,0.343602,-14.198153,36.105880,17.228346
3.900000,-0.183583,0.434868,1.383976,0.607309,1.404170,0.143848,1.895710,-1.985282,-1.057149,-0.207189,-2.263874,1.040814,-14.486955,36.324681,11.159448
3.950000,-0.150836,0.502566,1.389839,0.701834,1.302100,0.092381,1.866986,-2.052140,-0.991599,-0.928251,-0.482438,1.459547,-13.975008,33.634234,6.363579
4.000000,-0.113400,0.565078,1.393214,0.794008,1.198956,0.044688,1.802885,-2.033526,-0.911194,-1.604690,1.099550,1.677172,-12.777088,28.741697,3.142746
4.050000,-0.071436,0.622461,1.394308,0.882122,1.098748,0.001261,1.706517,-1.942185,-0.823882,-2.205960,2.391731,1.773821,-11.066512,22.444160,1.373580
4.100000,-0.025188,0.674953,1.393340,0.964660,1.004737,-0.037700,1.582289,-1.794352,-0.733812,-2.711341,3.343966,1.814530,-9.042635,15.507302,0.667289
4.150000,0.025030,0.722935,1.390538,1.040351,0.919312,-0.072120,1.435383,-1.607789,-0.642429,-3.110223,3.942462,1.840550,-6.897167,8.595799,0.545793
4.200000,0.078847,0.766884,1.386128,1.108198,0.843958,-0.101943,1.271266,-1.400106,-0.549757,-3.401058,4.203546,1.869109,-4.792670,2.240094,0.584822
4.250000,0.135850,0.807331,1.380343,1.167478,0.779302,-0.127096,1.095277,-1.187434,-0.455518,-3.589490,4.166471,1.899032,-2.850879,-3.175575,0.498867
4.300000,0.195595,0.844815,1.373419,1.217726,0.725215,-0.147495,0.912317,-0.983459,-0.359854,-3.686146,3.885988,1.918996,-1.149642,-7.413591,0.165024
4.350000,0.257623,0.879852,1.365594,1.258709,0.680956,-0.163081,0.726662,-0.798835,-0.263618,-3.704454,3.425112,1.915535,0.274049,-10.374939,-0.401322
4.400000,0.321466,0.912910,1.357111,1.290392,0.645331,-0.173857,0.541872,-0.640948,-0.168301,-3.658741,2.848494,1.878864,1.417128,-12.082653,-1.098237
4.450000,0.386662,0.944385,1.348208,1.312897,0.616861,-0.179911,0.360788,-0.513986,-0.075732,-3.562742,2.216847,1.805711,2.301442,-12.657096,-1.795251
4.500000,0.452756,0.974596,1.339119,1.326471,0.593933,-0.181430,0.185598,-0.419263,0.012271,-3.428597,1.582785,1.699339,2.964319,-12.285586,-2.381292
4.550000,0.519309,1.003779,1.330065,1.331456,0.574935,-0.178684,0.017929,-0.355708,0.094202,-3.266310,0.988288,1.567582,3.450158,-11.190642,-2.793543
4.600000,0.585901,1.032090,1.321251,1.328264,0.558362,-0.172010,-0.141033,-0.320435,0.169029,-3.083581,0.463720,1.419984,3.803862,-9.601370,-3.025462
4.650000,0.652135,1.059615,1.312864,1.317353,0.542891,-0.161781,-0.290430,-0.309336,0.236200,-2.885923,0.028151,1.265036,4.066312,-7.731221,-3.117716
4.700000,0.717637,1.086379,1.305073,1.299221,0.527428,-0.148390,-0.429626,-0.317619,0.295532,-2.676950,-0.309402,1.108213,4.271574,-5.763489,-3.138689
4.750000,0.782057,1.112358,1.298025,1.274390,0.511129,-0.132228,-0.558125,-0.340276,0.347022,-2.458766,-0.548198,0.951167,4.445306,-3.844135,-3.161723
4.800000,0.845076,1.137492,1.291850,1.243408,0.493401,-0.113688,-0.675502,-0.372439,0.390649,-2.232419,-0.693815,0.792041,4.603981,-2.080359,-3.245019
4.850000,0.906398,1.161698,1.286657,1.206840,0.473885,-0.093163,-0.781366,-0.409657,0.426226,-1.998368,-0.756234,0.626665,4.754878,-0.542912,-3.418023
4.900000,0.965760,1.184880,1.282534,1.165272,0.452435,-0.071065,-0.875339,-0.448063,0.453315,-1.756932,-0.748106,0.450238,4.896990,0.729458,-3.675841
4.950000,1.022925,1.206941,1.279550,1.119306,0.429079,-0.047832,-0.957060,-0.484468,0.471249,-1.508669,-0.683288,0.259081,5.023058,1.724526,-3.981333
5.000000,1.077690,1.227788,1.277751,1.069566,0.403988,-0.023940,-1.026206,-0.516391,0.479224,-1.254626,-0.575654,0.052105,5.122722,2.450760,-4.273264
5.050000,1.129882,1.247340,1.277156,1.016686,0.377440,0.000091,-1.082522,-0.542033,0.476460,-0.996397,-0.438212,-0.168246,5.186426,2.931528,-4.478246
5.100000,1.179359,1.265532,1.277760,0.961313,0.349785,0.023706,-1.125846,-0.560213,0.462399,-0.735983,-0.282501,-0.395720,5.209290,3.199601,-4.524092
5.150000,1.226013,1.282319,1.279527,0.904101,0.321419,0.046331,-1.156120,-0.570283,0.436888,-0.475468,-0.118252,-0.620655,5.193898,3.292177,-4.352452
5.200000,1.269769,1.297674,1.282393,0.845701,0.292757,0.067395,-1.173392,-0.572038,0.400333,-0.216593,0.046717,-0.830965,5.150953,3.246643,-3.928996
5.250000,1.310583,1.311594,1.286266,0.786762,0.264215,0.086364,-1.177780,-0.565612,0.353791,0.039627,0.206413,-1.013554,5.097079,3.097238,-3.249922
5.300000,1.348445,1.324096,1.291029,0.727923,0.236196,0.102774,-1.169430,-0.551397,0.298978,0.293115,0.356441,-1.155957,5.049702,2.872673,-2.344046
5.350000,1.383376,1.335214,1.296543,0.669819,0.209075,0.116262,-1.148468,-0.529968,0.238196,0.544598,0.493680,-1.247959,5.019633,2.594672,-1.270244
5.400000,1.415427,1.345003,1.302655,0.613077,0.183199,0.126593,-1.114970,-0.502029,0.174182,0.795078,0.615908,-1.282981,5.002721,2.277301,-0.110621
5.450000,1.444683,1.353534,1.309203,0.558322,0.158872,0.133680,-1.068961,-0.468377,0.109898,1.044870,0.721410,-1.259021,4.972317,1.926950,1.039661
5.500000,1.471259,1.360890,1.316023,0.506180,0.136361,0.137583,-1.010483,-0.429888,0.048280,1.292310,0.808603,-1.179015,4.874320,1.542810,2.084345
5.550000,1.495301,1.367170,1.322961,0.457274,0.115884,0.138508,-0.939730,-0.387517,-0.008004,1.532302,0.875691,-1.050587,4.626169,1.116767,2.937835
5.600000,1.516987,1.372479,1.329874,0.412208,0.097609,0.136783,-0.857253,-0.342318,-0.056779,1.754927,0.920279,-0.885232,4.119981,0.636323,3.535330
5.650000,1.536522,1.376931,1.336639,0.371548,0.081652,0.132830,-0.764237,-0.295489,-0.096527,1.944300,0.939323,-0.697054,3.229254,0.090543,3.839611
5.700000,1.554142,1.380644,1.343157,0.335784,0.068061,0.127130,-0.662823,-0.248386,-0.126484,2.077852,0.929334,-0.501271,1.818332,-0.534370,3.841396
5.750000,1.570101,1.383737,1.349352,0.305266,0.056813,0.120182,-0.556452,-0.202555,-0.146654,2.126133,0.885886,-0.312914,-0.249640,-1.251194,3.555958
5.800000,1.584668,1.386325,1.355175,0.280139,0.047805,0.112465,-0.450209,-0.159798,-0.157775,2.052888,0.804214,-0.145675,-3.112875,-2.031860,3.019820
5.850000,1.598114,1.388517,1.360599,0.260245,0.040833,0.104404,-0.351163,-0.122134,-0.161222,1.814846,0.682700,-0.010932,-2.168608,-1.417333,5.922853
5.900000,1.610693,1.390409,1.365616,0.245022,0.035592,0.096342,-0.268725,-0.091527,-0.158869,1.836027,0.662481,0.446610,-1.488726,-1.029518,8.334420
5.950000,1.622617,1.392076,1.370233,0.233373,0.031681,0.088517,-0.167560,-0.055886,-0.116561,1.665973,0.579749,0.822510,-5.273729,-2.158206,3.522505
6.000000,1.634030,1.393577,1.374467,0.228266,0.030003,0.084686,-0.102128,-0.033553,-0.076618,1.308654,0.446661,0.798861,-7.146374,-2.661760,-0.472983
