time,x,y,z,vx,vy,vz,ax,ay,az,jx,jy,jz,sx,sy,sz,roll,pitch,yaw,p,q,r
0.000000,-1.453827,-2.374797,-1.401179,-0.016324,0.008929,-0.021649,0.329862,-0.086049,0.049819,-8.795324,-0.929021,-0.103389,198.641411,152.362421,-17.023678,-0.008811,-0.033784,0.000000,-0.095298,0.900438,-0.000000
0.010000,-1.453975,-2.374712,-1.401393,-0.013433,0.008047,-0.021159,0.251400,-0.088037,0.047965,-6.940242,0.500230,-0.264290,172.771145,133.730360,-15.165235,-0.009015,-0.025747,0.000000,0.051300,0.711139,-0.000000
0.020000,-1.454098,-2.374635,-1.401602,-0.011238,0.007213,-0.020695,0.190234,-0.076641,0.044594,-5.332161,1.750332,-0.406870,149.222878,116.522249,-13.359598,-0.007847,-0.019478,0.000000,0.179436,0.546613,0.000000
0.030000,-1.454202,-2.374567,-1.401807,-0.009578,0.006553,-0.020271,0.144009,-0.053581,0.039887,-3.948410,2.835219,-0.531663,127.887053,100.677339,-11.608237,-0.005484,-0.014739,0.000000,0.290419,0.404839,-0.000000
0.040000,-1.454291,-2.374503,-1.402008,-0.008315,0.006175,-0.019901,0.110590,-0.020443,0.034019,-2.767411,3.768220,-0.639220,108.654113,86.134878,-9.912619,-0.002091,-0.011312,0.000000,0.385561,0.283785,-0.000000
0.050000,-1.454369,-2.374442,-1.402206,-0.007330,0.006173,-0.019594,0.088053,0.021319,0.027158,-1.768683,4.562056,-0.730106,91.414502,72.834119,-8.274215,0.002179,-0.009001,0.000000,0.466152,0.181451,-0.000000
0.060000,-1.454438,-2.374378,-1.402400,-0.006524,0.006626,-0.019360,0.074674,0.070375,0.019470,-0.932841,5.228839,-0.804900,76.058663,60.714312,-6.694493,0.007188,-0.007627,0.000000,0.533442,0.095899,-0.000000
0.070000,-1.454500,-2.374308,-1.402593,-0.005811,0.007601,-0.019207,0.068915,0.125511,0.011112,-0.241596,5.780076,-0.864197,62.477039,49.714706,-5.174923,0.012808,-0.007033,0.000000,0.588632,0.025272,0.000000
0.080000,-1.454554,-2.374225,-1.402785,-0.005124,0.009153,-0.019140,0.069417,0.185628,0.002236,0.322248,6.226665,-0.908604,50.560073,39.774554,-3.716975,0.018924,-0.007078,0.000000,0.632871,-0.032193,0.000000
0.090000,-1.454602,-2.374123,-1.402976,-0.004406,0.011327,-0.019164,0.074989,0.249730,-0.007012,0.774789,6.578896,-0.938746,40.198209,30.833105,-2.322116,0.025432,-0.007639,0.000000,0.667254,-0.078163,-0.000000
0.100000,-1.454642,-2.373996,-1.403168,-0.003611,0.014158,-0.019281,0.084592,0.316923,-0.016494,1.131031,6.846454,-0.955262,31.281890,22.829610,-0.991818,0.032240,-0.008608,0.000000,0.692821,-0.114195,-0.000000
0.110000,-1.454674,-2.373837,-1.403362,-0.002704,0.017673,-0.019494,0.097335,0.386407,-0.026074,1.404880,7.038413,-0.958803,23.701559,15.703320,0.272453,0.039263,-0.009895,0.000000,0.710555,-0.141742,-0.000000
0.120000,-1.454696,-2.373640,-1.403558,-0.001657,0.021891,-0.019802,0.112458,0.457468,-0.035629,1.609150,7.163242,-0.950038,17.347659,9.393485,1.469225,0.046428,-0.011422,0.000000,0.721382,-0.162140,-0.000000
0.130000,-1.454706,-2.373397,-1.403758,-0.000449,0.026825,-0.020206,0.129325,0.529474,-0.045036,1.755557,7.228801,-0.929648,12.110634,3.839356,2.597030,0.053670,-0.013122,0.000000,0.726162,-0.176615,-0.000000
0.140000,-1.454704,-2.373101,-1.403963,0.000934,0.032482,-0.020702,0.147412,0.601871,-0.054185,1.854721,7.242345,-0.898332,7.880927,-1.019816,3.654399,0.060933,-0.014943,0.000000,0.725697,-0.186277,0.000000
0.150000,-1.454687,-2.372745,-1.404173,0.002502,0.038862,-0.021288,0.166294,0.674170,-0.062969,1.916168,7.210519,-0.856800,4.548981,-5.244782,4.639862,0.068169,-0.016842,0.000000,0.720720,-0.192119,-0.000000
0.160000,-1.454654,-2.372321,-1.404389,0.004261,0.045963,-0.021960,0.185638,0.745950,-0.071290,1.948328,7.139361,-0.805779,2.005240,-8.896291,5.551950,0.075335,-0.018785,0.000000,0.711898,-0.195018,0.000000
0.170000,-1.454601,-2.371823,-1.404612,0.006215,0.053778,-0.022712,0.205187,0.816844,-0.079055,1.958535,7.034302,-0.746010,0.140146,-12.035091,6.389194,0.082396,-0.020746,0.000000,0.699830,-0.195735,-0.000000
0.180000,-1.454529,-2.371244,-1.404843,0.008365,0.062296,-0.023539,0.224756,0.886539,-0.086183,1.953027,6.900166,-0.678250,-1.155856,-14.721932,7.150125,0.089323,-0.022707,0.000000,0.685044,-0.194914,-0.000000
0.190000,-1.454433,-2.370575,-1.405083,0.010710,0.071504,-0.024434,0.244213,0.954765,-0.092596,1.936949,6.741168,-0.603267,-1.992325,-17.017564,7.833274,0.096089,-0.024657,0.000000,0.668002,-0.193085,0.000000
0.200000,-1.454314,-2.369811,-1.405332,0.013249,0.081386,-0.025388,0.263473,1.021292,-0.098227,1.914348,6.560916,-0.521848,-2.478816,-18.982737,8.437171,0.102676,-0.026585,0.000000,0.649091,-0.190662,0.000000
0.210000,-1.454168,-2.368945,-1.405591,0.015972,0.091920,-0.026395,0.282757,1.086071,-0.103012,1.912952,6.376065,-0.434560,-3.350708,-21.023055,8.954456,0.109081,-0.028516,0.000000,0.629985,-0.190429,-0.000000
0.220000,-1.453994,-2.367971,-1.405860,0.018894,0.103096,-0.027446,0.301707,1.148749,-0.106902,1.875963,6.156688,-0.342768,-4.015105,-22.812185,9.390274,0.115271,-0.030414,0.000000,0.607729,-0.186696,-0.000000
0.230000,-1.453789,-2.366881,-1.406140,0.022004,0.114887,-0.028530,0.320257,1.209149,-0.109854,1.833232,5.920597,-0.247028,-4.504932,-24.368648,9.743874,0.121231,-0.032273,0.000000,0.584106,-0.182460,-0.000000
0.240000,-1.453553,-2.365671,-1.406431,0.025298,0.127271,-0.029640,0.338358,1.267113,-0.111832,1.786337,5.670028,-0.148167,-4.853114,-25.710968,10.014509,0.126949,-0.034089,0.000000,0.559339,-0.177880,0.000000
0.250000,-1.453283,-2.364334,-1.406733,0.028770,0.140221,-0.030764,0.355974,1.322508,-0.112810,1.736532,5.407030,-0.047017,-5.092578,-26.857665,10.201431,0.132415,-0.035859,0.000000,0.533627,-0.173081,0.000000
0.260000,-1.452977,-2.362865,-1.407046,0.032413,0.153711,-0.031893,0.373165,1.375254,-0.112759,1.692418,5.136742,0.056399,-5.450237,-27.910018,10.283212,0.137623,-0.037589,0.000000,0.507472,-0.168919,-0.000000
0.270000,-1.452634,-2.361258,-1.407371,0.036229,0.167715,-0.033016,0.389812,1.425210,-0.111681,1.636409,4.853086,0.159295,-5.741274,-28.793660,10.282316,0.142562,-0.039269,0.000000,0.480241,-0.163631,0.000000
0.280000,-1.452252,-2.359509,-1.407707,0.040208,0.182205,-0.034123,0.405885,1.472289,-0.109575,1.577784,4.561403,0.261776,-5.974862,-29.516980,10.200528,0.147225,-0.040895,0.000000,0.452447,-0.158140,-0.000000
0.290000,-1.451829,-2.357612,-1.408053,0.044344,0.197151,-0.035204,0.421360,1.516417,-0.106449,1.517073,4.263253,0.363042,-6.160171,-30.088367,10.039632,0.151609,-0.042466,0.000000,0.424219,-0.152493,0.000000
0.300000,-1.451364,-2.355564,-1.408411,0.048633,0.212524,-0.036248,0.436221,1.557537,-0.102320,1.454711,3.960114,0.462311,-6.306374,-30.516210,9.801412,0.155709,-0.043980,0.000000,0.395673,-0.146726,0.000000
0.310000,-1.450856,-2.353361,-1.408778,0.053066,0.228292,-0.037247,0.450474,1.595615,-0.097202,1.393249,3.654119,0.559722,-6.478295,-30.827568,9.464831,0.159523,-0.045438,0.000000,0.366998,-0.141089,-0.000000
0.320000,-1.450303,-2.350997,-1.409155,0.057639,0.244425,-0.038190,0.464080,1.630612,-0.091138,1.327722,3.344827,0.652390,-6.622639,-31.009874,9.057289,0.163048,-0.046837,0.000000,0.338086,-0.135070,0.000000
0.330000,-1.449703,-2.348471,-1.409542,0.062346,0.260894,-0.039067,0.477024,1.662508,-0.084169,1.260880,3.034331,0.740646,-6.741763,-31.069229,8.583366,0.166284,-0.048175,0.000000,0.309121,-0.128938,0.000000
0.340000,-1.449055,-2.345778,-1.409936,0.067178,0.277665,-0.039870,0.489294,1.691298,-0.076342,1.192963,2.723831,0.823851,-6.838024,-31.011737,8.047641,0.169231,-0.049452,0.000000,0.280184,-0.122709,0.000000
0.350000,-1.448359,-2.342917,-1.410339,0.072129,0.294709,-0.040591,0.500881,1.716988,-0.067711,1.124188,2.414466,0.901408,-6.913780,-30.843500,7.454692,0.171888,-0.050665,0.000000,0.251349,-0.116393,0.000000
0.360000,-1.447612,-2.339883,-1.410748,0.077193,0.311995,-0.041222,0.511782,1.739597,-0.058328,1.055300,2.107505,0.973362,-6.985338,-30.575548,6.794138,0.174259,-0.051815,0.000000,0.222717,-0.110060,0.000000
0.370000,-1.446815,-2.336676,-1.411163,0.082362,0.329491,-0.041756,0.521985,1.759149,-0.048267,0.985162,1.803505,1.037805,-7.039396,-30.208453,6.087351,0.176343,-0.052900,0.000000,0.194285,-0.103580,-0.000000
0.380000,-1.445965,-2.333293,-1.411583,0.087630,0.347168,-0.042185,0.531484,1.775681,-0.037597,0.914568,1.503648,1.094976,-7.076604,-29.747715,5.340741,0.178145,-0.053919,0.000000,0.166146,-0.097026,0.000000
0.390000,-1.445062,-2.329732,-1.412006,0.092990,0.364995,-0.042506,0.540275,1.789239,-0.026393,0.843684,1.208845,1.144508,-7.097611,-29.198831,4.560719,0.179668,-0.054871,0.000000,0.138362,-0.090406,-0.000000
0.400000,-1.444105,-2.325993,-1.412432,0.098433,0.382943,-0.042712,0.548357,1.799877,-0.014733,0.772668,0.919947,1.186100,-7.103066,-28.567303,3.753697,0.180914,-0.055756,0.000000,0.110990,-0.083729,-0.000000
0.410000,-1.443093,-2.322073,-1.412860,0.103954,0.400983,-0.042799,0.555729,1.807661,-0.002697,0.701763,0.637820,1.219605,-7.095897,-27.860255,2.923773,0.181889,-0.056573,0.000000,0.084095,-0.077012,-0.000000
0.420000,-1.442025,-2.317973,-1.413288,0.109545,0.419087,-0.042765,0.562393,1.812659,0.009631,0.630900,0.363054,1.244633,-7.074195,-27.081361,2.079954,0.182598,-0.057322,0.000000,0.057710,-0.070240,-0.000000
0.430000,-1.440902,-2.313691,-1.413715,0.115200,0.437227,-0.042606,0.568348,1.814949,0.022167,0.560326,0.096415,1.261180,-7.038330,-26.235921,1.228933,0.183045,-0.058002,0.000000,0.031900,-0.063434,0.000000
0.440000,-1.439721,-2.309228,-1.414140,0.120910,0.455377,-0.042321,0.573600,1.814616,0.034827,0.490180,-0.161460,1.269210,-6.988670,-25.329235,0.377404,0.183238,-0.058612,0.000000,0.006716,-0.056602,0.000000
0.450000,-1.438483,-2.304584,-1.414561,0.126669,0.473511,-0.041909,0.578154,1.811751,0.047523,0.420597,-0.409983,1.268749,-6.925586,-24.366602,-0.467940,0.183182,-0.059153,0.000000,-0.017790,-0.049756,-0.000000
0.460000,-1.437188,-2.299758,-1.414977,0.132471,0.491604,-0.041370,0.582014,1.806450,0.060169,0.351686,-0.648593,1.259494,-6.848795,-23.354074,-1.290310,0.182884,-0.059624,0.000000,-0.041573,-0.042899,-0.000000
0.470000,-1.435834,-2.294752,-1.415388,0.138307,0.509632,-0.040706,0.585190,1.798814,0.072686,0.283634,-0.876880,1.242553,-6.759399,-22.296108,-2.094343,0.182353,-0.060026,0.000000,-0.064571,-0.036057,-0.000000
0.480000,-1.434421,-2.289566,-1.415791,0.144172,0.527573,-0.039917,0.587690,1.788948,0.084994,0.216538,-1.094381,1.217686,-6.657849,-21.197911,-2.874580,0.181596,-0.060357,0.000000,-0.086742,-0.029235,-0.000000
0.490000,-1.432950,-2.284201,-1.416186,0.150059,0.545404,-0.039007,0.589525,1.776963,0.097014,0.150516,-1.300721,1.185159,-6.544593,-20.064692,-3.625564,0.180621,-0.060620,0.000000,-0.108038,-0.022447,-0.000000
0.500000,-1.431420,-2.278658,-1.416571,0.155961,0.563105,-0.037978,0.590705,1.762972,0.108673,0.085684,-1.495576,1.145291,-6.420081,-18.901657,-4.341836,0.179438,-0.060814,0.000000,-0.128414,-0.015705,-0.000000
0.510000,-1.429831,-2.272939,-1.416945,0.161871,0.580657,-0.036835,0.591242,1.747092,0.119889,0.022109,-1.678601,1.097718,-6.283700,-17.715819,-4.999279,0.178056,-0.060939,0.000000,-0.147833,-0.009015,-0.000000
0.520000,-1.428183,-2.267046,-1.417307,0.167784,0.598041,-0.035582,0.591151,1.729440,0.130606,-0.040004,-1.849746,1.044617,-6.137093,-16.510361,-5.613380,0.176485,-0.060997,0.000000,-0.166239,-0.002411,0.000000
0.530000,-1.426475,-2.260979,-1.417656,0.173692,0.615240,-0.034225,0.590447,1.710137,0.140762,-0.100601,-2.008760,0.985605,-5.980840,-15.290270,-6.180964,0.174735,-0.060989,0.000000,-0.183600,0.004101,-0.000000
0.540000,-1.424709,-2.254742,-1.417991,0.179590,0.632239,-0.032769,0.589145,1.689305,0.150300,-0.159590,-2.155520,0.921163,-5.815521,-14.060533,-6.698859,0.172816,-0.060915,0.000000,-0.199882,0.010507,-0.000000
0.550000,-1.422884,-2.248335,-1.418311,0.185473,0.649022,-0.031221,0.587261,1.667068,0.159168,-0.216883,-2.289955,0.851804,-5.641715,-12.826138,-7.163891,0.170741,-0.060776,0.000000,-0.215052,0.016791,0.000000
0.560000,-1.421000,-2.241762,-1.418616,0.191334,0.665576,-0.029588,0.584813,1.643550,0.167312,-0.272422,-2.411860,0.777215,-5.459405,-11.596697,-7.551226,0.168519,-0.060574,0.000000,-0.229081,0.022948,-0.000000
0.570000,-1.419057,-2.235024,-1.418903,0.197167,0.681889,-0.027877,0.581819,1.618872,0.174701,-0.326074,-2.521698,0.700001,-5.269843,-10.372006,-7.882004,0.166163,-0.060311,0.000000,-0.241952,0.028943,0.000000
0.580000,-1.417056,-2.228125,-1.419173,0.202968,0.697950,-0.026096,0.578298,1.593156,0.181302,-0.377797,-2.619331,0.619765,-5.073680,-9.156485,-8.155704,0.163684,-0.059988,0.000000,-0.253645,0.034772,0.000000
0.590000,-1.414998,-2.221066,-1.419425,0.208732,0.713749,-0.024254,0.574269,1.566525,0.187088,-0.427528,-2.704873,0.537079,-4.871571,-7.954555,-8.371805,0.161094,-0.059607,0.000000,-0.264145,0.040421,-0.000000
0.600000,-1.412882,-2.213851,-1.419658,0.214452,0.729278,-0.022357,0.569754,1.539099,0.192037,-0.475210,-2.778482,0.452522,-4.664168,-6.770636,-8.529786,0.158405,-0.059169,0.000000,-0.273446,0.045877,0.000000
0.610000,-1.410709,-2.206482,-1.419872,0.220125,0.744528,-0.020415,0.564772,1.510998,0.196126,-0.520787,-2.840040,0.365919,-4.452351,-5.617248,-8.609928,0.155629,-0.058678,0.000000,-0.281523,0.051130,-0.000000
0.620000,-1.408480,-2.198961,-1.420066,0.225746,0.759495,-0.018437,0.559345,1.482336,0.199354,-0.564234,-2.890552,0.279656,-4.236519,-4.489722,-8.633260,0.152778,-0.058135,0.000000,-0.288429,0.056161,0.000000
0.630000,-1.406194,-2.191293,-1.420240,0.231311,0.774174,-0.016431,0.553495,1.453224,0.201719,-0.605506,-2.929932,0.193437,-4.017298,-3.391486,-8.601609,0.149865,-0.057542,0.000000,-0.294151,0.060964,-0.000000
0.640000,-1.403854,-2.183479,-1.420394,0.236815,0.788559,-0.014406,0.547243,1.423773,0.203225,-0.644571,-2.958491,0.107801,-3.795314,-2.325971,-8.516806,0.146899,-0.056903,0.000000,-0.298702,0.065528,-0.000000
0.650000,-1.401458,-2.175522,-1.420528,0.242254,0.802648,-0.012370,0.540611,1.394089,0.203879,-0.681405,-2.976572,0.023272,-3.571191,-1.296604,-8.380680,0.143894,-0.056218,0.000000,-0.302103,0.069845,-0.000000
0.660000,-1.399009,-2.167427,-1.420642,0.247626,0.816440,-0.010331,0.533623,1.364280,0.203690,-0.715947,-2.984130,-0.060154,-3.346625,-0.317530,-8.182278,0.140861,-0.055492,0.000000,-0.304345,0.073907,-0.000000
0.670000,-1.396506,-2.159195,-1.420735,0.252926,0.829934,-0.008298,0.526300,1.334439,0.202683,-0.748286,-2.982583,-0.140791,-3.121041,0.619849,-7.937779,0.137811,-0.054726,0.000000,-0.305544,0.077711,-0.000000
0.680000,-1.393950,-2.150829,-1.420808,0.258151,0.843129,-0.006280,0.518664,1.304659,0.200883,-0.778366,-2.971879,-0.218767,-2.894934,1.513415,-7.650575,0.134754,-0.053924,0.000000,-0.305695,0.081250,0.000000
0.690000,-1.391343,-2.142333,-1.420861,0.263298,0.856027,-0.004283,0.510740,1.275030,0.198318,-0.806185,-2.952468,-0.293671,-2.668798,2.361051,-7.324064,0.131701,-0.053087,0.000000,-0.304840,0.084520,0.000000
0.700000,-1.388685,-2.133710,-1.420894,0.268365,0.868630,-0.002316,0.502548,1.245637,0.195021,-0.831744,-2.924819,-0.365128,-2.443127,3.160640,-6.961638,0.128660,-0.052220,0.000000,-0.303024,0.087519,-0.000000
0.710000,-1.385976,-2.124961,-1.420907,0.273348,0.880941,-0.000385,0.494113,1.216564,0.191026,-0.854987,-2.888971,-0.432981,-2.220023,3.898660,-6.562009,0.125644,-0.051323,0.000000,-0.300251,0.090241,-0.000000
0.720000,-1.383218,-2.116092,-1.420901,0.278246,0.892963,0.001502,0.485456,1.187881,0.186375,-0.876077,-2.846506,-0.496483,-1.998177,4.585794,-6.133829,0.122658,-0.050401,0.000000,-0.296678,0.092697,0.000000
0.730000,-1.380411,-2.107103,-1.420877,0.283057,0.904700,0.003340,0.476599,1.159656,0.181111,-0.894956,-2.797427,-0.555576,-1.777888,5.221322,-5.681068,0.119713,-0.049456,0.000000,-0.292311,0.094883,-0.000000
0.740000,-1.377557,-2.097999,-1.420835,0.287777,0.916158,0.005123,0.467564,1.131953,0.175279,-0.911641,-2.742254,-0.610035,-1.559453,5.804523,-5.207693,0.116815,-0.048491,0.000000,-0.287207,0.096799,0.000000
0.750000,-1.374656,-2.088781,-1.420775,0.292407,0.927341,0.006844,0.458373,1.104830,0.168926,-0.926152,-2.681513,-0.659674,-1.343172,6.334676,-4.717674,0.113971,-0.047508,0.000000,-0.281426,0.098449,0.000000
0.760000,-1.371709,-2.079453,-1.420698,0.296944,0.938256,0.008500,0.449049,1.078344,0.162103,-0.938444,-2.615342,-0.704234,-1.131070,6.801017,-4.217828,0.111189,-0.046510,0.000000,-0.274986,0.099829,0.000000
0.770000,-1.368718,-2.070017,-1.420605,0.301388,0.948910,0.010085,0.439611,1.052538,0.154859,-0.948705,-2.545222,-0.743873,-0.921505,7.214099,-3.708927,0.108473,-0.045500,0.000000,-0.268048,0.100960,-0.000000
0.780000,-1.365682,-2.060475,-1.420497,0.305736,0.959309,0.011596,0.430082,1.027452,0.147243,-0.956883,-2.471236,-0.778394,-0.714564,7.574430,-3.194588,0.105829,-0.044480,0.000000,-0.260628,0.101838,0.000000
0.790000,-1.362603,-2.050831,-1.420374,0.309989,0.969462,0.013029,0.420481,1.003124,0.139308,-0.963005,-2.393908,-0.807759,-0.510335,7.882520,-2.678434,0.103262,-0.043453,0.000000,-0.252786,0.102468,0.000000
0.800000,-1.359483,-2.041087,-1.420236,0.314146,0.979375,0.014381,0.410828,0.979584,0.131105,-0.967099,-2.313758,-0.831969,-0.308903,8.138878,-2.164082,0.100775,-0.042420,0.000000,-0.244584,0.102856,-0.000000
0.810000,-1.356321,-2.031245,-1.420086,0.318206,0.989056,0.015650,0.401146,0.956860,0.122689,-0.969139,-2.231014,-0.850735,-0.111722,8.336770,-1.663322,0.098371,-0.041386,0.000000,-0.236050,0.103001,-0.000000
0.820000,-1.353119,-2.021307,-1.419924,0.322169,0.998514,0.016834,0.391452,0.934969,0.114107,-0.969282,-2.146865,-0.864897,0.082655,8.484836,-1.170604,0.096054,-0.040351,0.000000,-0.227322,0.102924,0.000000
0.830000,-1.349878,-2.011275,-1.419750,0.326035,1.007758,0.017932,0.381767,0.913927,0.105407,-0.967495,-2.061479,-0.874183,0.274310,8.584470,-0.688549,0.093826,-0.039318,0.000000,-0.218420,0.102625,0.000000
0.840000,-1.346598,-2.001152,-1.419565,0.329804,1.016796,0.018942,0.372109,0.893742,0.096639,-0.963804,-1.975333,-0.878713,0.463324,8.637068,-0.219776,0.091686,-0.038290,0.000000,-0.209400,0.102109,-0.000000
0.850000,-1.343282,-1.990940,-1.419371,0.333477,1.025636,0.019864,0.362497,0.874421,0.087849,-0.958237,-1.888890,-0.878632,0.649776,8.644027,0.233095,0.089638,-0.037268,0.000000,-0.200316,0.101382,0.000000
0.860000,-1.339929,-1.980640,-1.419168,0.337054,1.034287,0.020699,0.352950,0.855966,0.079086,-0.950792,-1.802441,-0.873695,0.833113,8.602744,0.656908,0.087680,-0.036255,0.000000,-0.191200,0.100445,-0.000000
0.870000,-1.336541,-1.970255,-1.418958,0.340536,1.042758,0.021446,0.343487,0.838370,0.070388,-0.941554,-1.716798,-0.865089,1.014128,8.519102,1.060869,0.085814,-0.035252,0.000000,-0.182151,0.099314,-0.000000
0.880000,-1.333119,-1.959785,-1.418740,0.343924,1.051057,0.022107,0.334125,0.821626,0.061797,-0.930516,-1.632194,-0.852548,1.192981,8.394987,1.443650,0.084037,-0.034262,0.000000,-0.173191,0.097990,-0.000000
0.890000,-1.329663,-1.949234,-1.418516,0.347219,1.059193,0.022683,0.324883,0.805721,0.053350,-0.917701,-1.549026,-0.836291,1.369831,8.232283,1.803921,0.082349,-0.033286,0.000000,-0.164367,0.096478,-0.000000
0.900000,-1.326175,-1.938602,-1.418286,0.350422,1.067175,0.023175,0.315777,0.790640,0.045083,-0.903126,-1.467671,-0.816549,1.544836,8.032877,2.140353,0.080749,-0.032327,0.000000,-0.155720,0.094782,0.000000
0.910000,-1.322655,-1.927891,-1.418053,0.353535,1.075009,0.023585,0.306826,0.776361,0.037034,-0.886816,-1.388435,-0.793168,1.718320,7.797403,2.441511,0.079234,-0.031385,0.000000,-0.147282,0.092906,-0.000000
0.920000,-1.319104,-1.917102,-1.417815,0.356560,1.082704,0.023916,0.298047,0.762862,0.029229,-0.868772,-1.311776,-0.767352,1.890257,7.529151,2.717408,0.077803,-0.030463,0.000000,-0.139110,0.090855,-0.000000
0.930000,-1.315524,-1.906237,-1.417574,0.359497,1.090269,0.024170,0.289456,0.750116,0.021696,-0.849016,-1.237955,-0.738904,2.060785,7.230157,2.967951,0.076451,-0.029563,0.000000,-0.131229,0.088633,0.000000
0.940000,-1.311915,-1.895297,-1.417332,0.362349,1.097709,0.024351,0.281072,0.738093,0.014459,-0.827561,-1.167269,-0.708078,2.230042,6.902461,3.193049,0.075177,-0.028686,0.000000,-0.123670,0.086242,0.000000
0.950000,-1.308277,-1.884284,-1.417088,0.365119,1.105033,0.024461,0.272911,0.726759,0.007541,-0.804419,-1.099995,-0.675129,2.398167,6.548102,3.392609,0.073977,-0.027834,0.000000,-0.116464,0.083686,-0.000000
0.960000,-1.304612,-1.873197,-1.416843,0.367808,1.112246,0.024503,0.264989,0.716080,0.000966,-0.779636,-1.036410,-0.640010,2.566188,6.169662,3.558931,0.072846,-0.027008,0.000000,-0.109638,0.080969,-0.000000
0.970000,-1.300921,-1.862039,-1.416598,0.370420,1.119356,0.024481,0.257324,0.706018,-0.005254,-0.753138,-0.976701,-0.603693,2.733245,5.768569,3.700462,0.071782,-0.026211,0.000000,-0.103216,0.078088,0.000000
0.980000,-1.297204,-1.850810,-1.416353,0.372956,1.126369,0.024399,0.249932,0.696533,-0.011104,-0.724974,-0.921108,-0.566081,2.899366,5.346793,3.818041,0.070781,-0.025443,0.000000,-0.097220,0.075048,0.000000
0.990000,-1.293462,-1.839512,-1.416110,0.375419,1.133289,0.024260,0.242830,0.687582,-0.016572,-0.695154,-0.869828,-0.527409,3.064581,4.906306,3.912508,0.069837,-0.024706,0.000000,-0.091672,0.071849,0.000000
1.000000,-1.289696,-1.828145,-1.415868,0.377813,1.140122,0.024069,0.236034,0.679121,-0.021649,-0.663685,-0.823038,-0.487905,3.228920,4.449080,3.984703,0.068946,-0.024003,0.000000,-0.086589,0.068494,0.000000
1.010000,-1.285906,-1.816710,-1.415629,0.380141,1.146873,0.023828,0.229561,0.671105,-0.026326,-0.630633,-0.780949,-0.447625,3.393788,3.978444,4.031388,0.068103,-0.023334,0.000000,-0.081992,0.064988,-0.000000
1.020000,-1.282094,-1.805208,-1.415392,0.382406,1.153545,0.023543,0.223427,0.663486,-0.030600,-0.595874,-0.743573,-0.407162,3.557670,3.494845,4.057978,0.067304,-0.022701,0.000000,-0.077883,0.061321,0.000000
1.030000,-1.278258,-1.793639,-1.415158,0.384611,1.160144,0.023218,0.217649,0.656217,-0.034469,-0.559483,-0.711089,-0.366528,3.720425,3.000088,4.065811,0.066544,-0.022105,0.000000,-0.074281,0.057500,0.000000
1.040000,-1.274401,-1.782005,-1.414928,0.386760,1.166671,0.022855,0.212243,0.649248,-0.037931,-0.521470,-0.683602,-0.325904,3.881914,2.495978,4.056227,0.065817,-0.021549,0.000000,-0.071195,0.053524,-0.000000
1.050000,-1.270523,-1.770306,-1.414701,0.388857,1.173129,0.022461,0.207225,0.642528,-0.040988,-0.481849,-0.661195,-0.285457,4.041998,1.984321,4.030563,0.065118,-0.021033,0.000000,-0.068635,0.049397,0.000000
1.060000,-1.266625,-1.758543,-1.414479,0.390906,1.179522,0.022037,0.202610,0.636006,-0.043641,-0.440698,-0.643994,-0.245321,4.202109,1.468416,3.989643,0.064442,-0.020559,0.000000,-0.066611,0.045123,-0.000000
1.070000,-1.262705,-1.746716,-1.414260,0.392911,1.185850,0.021589,0.198416,0.629631,-0.045896,-0.397884,-0.631907,-0.205686,4.360342,0.948391,3.935384,0.063784,-0.020129,0.000000,-0.065117,0.040691,0.000000
1.080000,-1.258766,-1.734826,-1.414047,0.394876,1.192115,0.021120,0.194658,0.623351,-0.047757,-0.353498,-0.625035,-0.166654,4.516368,0.425866,3.869188,0.063138,-0.019744,0.000000,-0.064160,0.036108,0.000000
1.090000,-1.254808,-1.722874,-1.413838,0.396805,1.198317,0.020635,0.191351,0.617113,-0.049231,-0.307565,-0.623393,-0.128337,4.669853,-0.097535,3.792455,0.062499,-0.019406,0.000000,-0.063744,0.031375,-0.000000
1.100000,-1.250830,-1.710860,-1.413634,0.398704,1.204457,0.020137,0.188512,0.610865,-0.050326,-0.260111,-0.626983,-0.090835,4.820466,-0.620193,3.706588,0.061861,-0.019116,0.000000,-0.063869,0.026495,0.000000
1.110000,-1.246834,-1.698785,-1.413435,0.400577,1.210534,0.019630,0.186153,0.604555,-0.051052,-0.211223,-0.635842,-0.054322,4.969326,-1.139131,3.615282,0.061220,-0.018875,0.000000,-0.064539,0.021476,0.000000
1.120000,-1.242819,-1.686649,-1.413242,0.402429,1.216548,0.019117,0.184292,0.598131,-0.051416,-0.160801,-0.649813,-0.018654,5.114473,-1.654246,3.517363,0.060569,-0.018686,0.000000,-0.065737,0.016306,0.000000
1.130000,-1.238785,-1.674454,-1.413053,0.404265,1.222496,0.018603,0.182942,0.591542,-0.051428,-0.108948,-0.668910,0.016007,5.255397,-2.164083,3.413954,0.059903,-0.018549,0.000000,-0.067467,0.010994,-0.000000
1.140000,-1.234734,-1.662199,-1.412870,0.406090,1.228378,0.018090,0.182118,0.584736,-0.051099,-0.055709,-0.693072,0.049611,5.391589,-2.667184,3.306175,0.059218,-0.018466,0.000000,-0.069722,0.005545,-0.000000
1.150000,-1.230664,-1.649887,-1.412691,0.407909,1.234190,0.017582,0.181832,0.577664,-0.050440,-0.001134,-0.722226,0.082120,5.522539,-3.162094,3.195146,0.058507,-0.018439,0.000000,-0.072496,-0.000039,0.000000
1.160000,-1.226576,-1.637516,-1.412518,0.409728,1.239930,0.017082,0.182099,0.570275,-0.049462,0.054681,-0.756331,0.113354,5.648783,-3.646120,3.085856,0.057766,-0.018467,0.000000,-0.075786,-0.005747,0.000000
1.170000,-1.222469,-1.625088,-1.412350,0.411553,1.245595,0.016594,0.182930,0.562521,-0.048176,0.111774,-0.795167,0.143659,5.768638,-4.119193,2.975085,0.056990,-0.018554,0.000000,-0.079569,-0.011586,0.000000
1.180000,-1.218344,-1.612604,-1.412186,0.413389,1.251179,0.016120,0.184338,0.554356,-0.046593,0.170031,-0.838674,0.172853,5.881467,-4.580009,2.863480,0.056173,-0.018700,0.000000,-0.083840,-0.017545,-0.000000
1.190000,-1.214201,-1.600065,-1.412027,0.415241,1.256680,0.015663,0.186334,0.545733,-0.044723,0.229378,-0.886722,0.200928,5.986634,-5.027263,2.751690,0.055311,-0.018906,0.000000,-0.088588,-0.023617,-0.000000
1.200000,-1.210040,-1.587471,-1.411873,0.417117,1.262092,0.015226,0.188929,0.536607,-0.042578,0.289736,-0.939170,0.227888,6.083500,-5.459651,2.640361,0.054400,-0.019173,0.000000,-0.093798,-0.029795,0.000000
1.210000,-1.205859,-1.574823,-1.411722,0.419022,1.267411,0.014812,0.192132,0.526935,-0.040171,0.351001,-0.995915,0.253577,6.171862,-5.874515,2.534244,0.053434,-0.019503,0.000000,-0.099463,-0.036071,-0.000000
1.220000,-1.201659,-1.562123,-1.411576,0.420962,1.272629,0.014424,0.195952,0.516675,-0.037510,0.413121,-1.056663,0.278394,6.250595,-6.272068,2.429382,0.052409,-0.019896,0.000000,-0.105552,-0.042439,0.000000
1.230000,-1.197439,-1.549371,-1.411434,0.422943,1.277742,0.014063,0.200397,0.505788,-0.034606,0.475978,-1.121295,0.302169,6.319010,-6.651171,2.325919,0.051321,-0.020353,0.000000,-0.112055,-0.048889,-0.000000
1.240000,-1.193200,-1.536569,-1.411295,0.424972,1.282743,0.013732,0.205474,0.494237,-0.031470,0.539465,-1.189621,0.324917,6.376416,-7.010686,2.224000,0.050167,-0.020875,0.000000,-0.118953,-0.055411,-0.000000
1.250000,-1.188940,-1.523717,-1.411159,0.427055,1.287624,0.013434,0.211188,0.481984,-0.028111,0.603468,-1.261439,0.346655,6.422121,-7.349472,2.123772,0.048941,-0.021463,0.000000,-0.126227,-0.061993,0.000000
1.260000,-1.184659,-1.510817,-1.411026,0.429198,1.292380,0.013171,0.217544,0.468996,-0.024541,0.667881,-1.336606,0.367272,6.455058,-7.664661,2.028585,0.047641,-0.022117,0.000000,-0.133864,-0.068626,-0.000000
1.270000,-1.180356,-1.497869,-1.410896,0.431408,1.297002,0.012944,0.224546,0.455242,-0.020769,0.732542,-1.414734,0.387089,6.474960,-7.957056,1.934985,0.046263,-0.022837,0.000000,-0.141824,-0.075295,0.000000
1.280000,-1.176030,-1.484877,-1.410767,0.433691,1.301482,0.012756,0.232196,0.440692,-0.016803,0.797335,-1.495668,0.405976,6.481184,-8.225729,1.842726,0.044803,-0.023624,0.000000,-0.150093,-0.081987,0.000000
1.290000,-1.171682,-1.471840,-1.410640,0.436054,1.305813,0.012609,0.240493,0.425320,-0.012652,0.862118,-1.579166,0.423947,6.473086,-8.469751,1.751560,0.043260,-0.024479,0.000000,-0.158648,-0.088689,-0.000000
1.300000,-1.167309,-1.458761,-1.410515,0.438503,1.309986,0.012504,0.249438,0.409101,-0.008327,0.926746,-1.664978,0.441010,6.450020,-8.688195,1.661240,0.041630,-0.025400,0.000000,-0.167463,-0.095386,0.000000
1.310000,-1.162911,-1.445641,-1.410390,0.441045,1.313992,0.012443,0.259028,0.392013,-0.003836,0.991123,-1.752932,0.457111,6.409924,-8.877841,1.573102,0.039910,-0.026388,0.000000,-0.176523,-0.102069,0.000000
1.320000,-1.158488,-1.432482,-1.410266,0.443686,1.317823,0.012427,0.269258,0.374037,0.000812,1.054955,-1.842546,0.472402,6.353747,-9.040334,1.485122,0.038098,-0.027443,0.000000,-0.185776,-0.108709,0.000000
1.330000,-1.154037,-1.419285,-1.410141,0.446432,1.321470,0.012459,0.280124,0.355157,0.005609,1.118143,-1.933646,0.486812,6.281018,-9.175029,1.396858,0.036194,-0.028564,0.000000,-0.195208,-0.115294,-0.000000
1.340000,-1.149559,-1.406053,-1.410016,0.449290,1.324923,0.012540,0.291619,0.335360,0.010546,1.180518,-2.025952,0.500337,6.191268,-9.281279,1.307869,0.034194,-0.029750,0.000000,-0.204788,-0.121808,0.000000
1.350000,-1.145051,-1.392788,-1.409890,0.452266,1.328174,0.012671,0.303732,0.314635,0.015613,1.241910,-2.119175,0.512966,6.084026,-9.358437,1.217714,0.032098,-0.031001,0.000000,-0.214487,-0.128233,-0.000000
1.360000,-1.140513,-1.379490,-1.409763,0.455367,1.331213,0.012853,0.316454,0.292973,0.020802,1.302246,-2.213140,0.524695,5.956128,-9.402855,1.125719,0.029904,-0.032316,0.000000,-0.224288,-0.134561,0.000000
1.370000,-1.135943,-1.366164,-1.409633,0.458597,1.334030,0.013087,0.329772,0.270371,0.026104,1.361092,-2.307266,0.535484,5.810128,-9.417256,1.031705,0.027612,-0.033693,0.000000,-0.234130,-0.140747,-0.000000
1.380000,-1.131341,-1.352811,-1.409501,0.461964,1.336617,0.013375,0.343671,0.246828,0.031509,1.418387,-2.401385,0.545321,5.645885,-9.401360,0.935258,0.025221,-0.035131,0.000000,-0.243995,-0.146784,0.000000
1.390000,-1.126703,-1.339433,-1.409366,0.465473,1.338964,0.013718,0.358134,0.222344,0.037007,1.473949,-2.495191,0.554180,5.463259,-9.354888,0.835967,0.022732,-0.036629,0.000000,-0.253850,-0.152652,0.000000
1.400000,-1.122031,-1.326032,-1.409226,0.469129,1.341061,0.014116,0.373143,0.196926,0.042589,1.527591,-2.588380,0.562029,5.262110,-9.277562,0.733418,0.020144,-0.038184,0.000000,-0.263664,-0.158332,0.000000
1.410000,-1.117320,-1.312612,-1.409083,0.472937,1.342899,0.014570,0.388680,0.170578,0.048245,1.579294,-2.680789,0.568906,5.038129,-9.165298,0.625418,0.017459,-0.039796,0.000000,-0.273417,-0.163820,-0.000000
1.420000,-1.112571,-1.299175,-1.408935,0.476904,1.344469,0.015081,0.404721,0.143314,0.053963,1.628479,-2.771752,0.574604,4.795855,-9.022086,0.513554,0.014676,-0.041460,0.000000,-0.283040,-0.169054,0.000000
1.430000,-1.107782,-1.285724,-1.408781,0.481033,1.345762,0.015649,0.421242,0.115148,0.059733,1.675151,-2.861129,0.579164,4.535657,-8.848115,0.397630,0.011798,-0.043176,0.000000,-0.292515,-0.174035,-0.000000
1.440000,-1.102950,-1.272261,-1.408622,0.485330,1.346769,0.016275,0.438215,0.086098,0.065543,1.719133,-2.948612,0.582543,4.257908,-8.643569,0.277454,0.008826,-0.044940,0.000000,-0.301808,-0.178742,-0.000000
1.450000,-1.098075,-1.258789,-1.408456,0.489799,1.347481,0.016960,0.455615,0.056183,0.071380,1.760252,-3.033899,0.584698,3.962977,-8.408636,0.152829,0.005763,-0.046750,0.000000,-0.310885,-0.183155,-0.000000
1.460000,-1.093153,-1.245312,-1.408282,0.494444,1.347890,0.017703,0.473413,0.025426,0.077234,1.798553,-3.116862,0.585690,3.645767,-8.139028,0.020875,0.002609,-0.048603,0.000000,-0.319731,-0.187277,0.000000
1.470000,-1.088185,-1.231833,-1.408101,0.499269,1.347987,0.018505,0.491575,-0.006144,0.083089,1.833359,-3.196781,0.585221,3.312785,-7.839955,-0.115586,-0.000631,-0.050495,0.000000,-0.328266,-0.191036,-0.000000
1.480000,-1.083168,-1.218354,-1.407912,0.504276,1.347765,0.019365,0.510068,-0.038499,0.088933,1.864760,-3.273565,0.583364,2.965070,-7.512149,-0.256420,-0.003955,-0.052422,0.000000,-0.336479,-0.194439,-0.000000
1.490000,-1.078099,-1.204878,-1.407714,0.509471,1.347215,0.020283,0.528858,-0.071604,0.094752,1.892614,-3.346930,0.580078,2.603663,-7.156346,-0.401492,-0.007359,-0.054382,0.000000,-0.344335,-0.197468,-0.000000
1.500000,-1.072977,-1.191410,-1.407506,0.514854,1.346330,0.021260,0.547909,-0.105425,0.100530,1.916791,-3.416601,0.575321,2.229603,-6.773280,-0.550668,-0.010840,-0.056371,0.000000,-0.351803,-0.200109,0.000000
1.510000,-1.067801,-1.177953,-1.407288,0.520430,1.345104,0.022294,0.567184,-0.139925,0.106254,1.937372,-3.482484,0.569147,1.838772,-6.359225,-0.706240,-0.014394,-0.058384,0.000000,-0.358869,-0.202368,-0.000000
1.520000,-1.062568,-1.164509,-1.407060,0.526199,1.343530,0.023384,0.586643,-0.175060,0.111908,1.953763,-3.543900,0.561292,1.437999,-5.919922,-0.865348,-0.018016,-0.060417,0.000000,-0.365457,-0.204179,0.000000
1.530000,-1.057277,-1.151083,-1.406821,0.532163,1.341601,0.024531,0.606246,-0.210788,0.117475,1.966104,-3.600803,0.551830,1.028955,-5.456652,-1.027561,-0.021702,-0.062466,0.000000,-0.371560,-0.205556,-0.000000
1.540000,-1.051924,-1.137679,-1.406569,0.538324,1.339312,0.025734,0.625951,-0.247061,0.122939,1.974320,-3.652958,0.540732,0.613311,-4.970695,-1.192448,-0.025446,-0.064528,0.000000,-0.377148,-0.206488,0.000000
1.550000,-1.046509,-1.124298,-1.406306,0.544682,1.336658,0.026990,0.645718,-0.283830,0.128284,1.978354,-3.700145,0.527974,0.192739,-4.463333,-1.359576,-0.029243,-0.066596,0.000000,-0.382196,-0.206967,-0.000000
1.560000,-1.041030,-1.110947,-1.406029,0.551238,1.333634,0.028299,0.665505,-0.321048,0.133493,1.978263,-3.742295,0.513576,-0.233585,-3.932358,-1.529570,-0.033088,-0.068667,0.000000,-0.386691,-0.206997,-0.000000
1.570000,-1.035484,-1.097627,-1.405740,0.557992,1.330236,0.029659,0.685269,-0.358658,0.138550,1.973790,-3.778887,0.497425,-0.661189,-3.382966,-1.700811,-0.036975,-0.070737,0.000000,-0.390575,-0.206549,0.000000
1.580000,-1.029869,-1.084343,-1.405436,0.564944,1.326460,0.031069,0.704967,-0.396607,0.143436,1.965042,-3.809899,0.479558,-1.088098,-2.816863,-1.872740,-0.040897,-0.072799,0.000000,-0.393844,-0.205634,0.000000
1.590000,-1.024184,-1.071099,-1.405118,0.572091,1.322303,0.032527,0.724556,-0.434837,0.148135,1.952036,-3.835174,0.459970,-1.512335,-2.235757,-2.044796,-0.044849,-0.074851,0.000000,-0.396478,-0.204250,-0.000000
1.600000,-1.018427,-1.057898,-1.404785,0.579434,1.317762,0.034031,0.743993,-0.473291,0.152630,1.934810,-3.854570,0.438663,-1.931923,-1.641355,-2.216417,-0.048825,-0.076887,0.000000,-0.398459,-0.202401,0.000000
1.610000,-1.012595,-1.044745,-1.404437,0.586970,1.312836,0.035579,0.763238,-0.511909,0.156902,1.913383,-3.868038,0.415635,-2.343938,-1.033468,-2.386781,-0.052816,-0.078902,0.000000,-0.399779,-0.200087,-0.000000
1.620000,-1.006687,-1.031643,-1.404074,0.594698,1.307524,0.037169,0.782247,-0.550631,0.160937,1.887918,-3.875292,0.390921,-2.747467,-0.415932,-2.555620,-0.056818,-0.080893,0.000000,-0.400408,-0.197325,-0.000000
1.630000,-1.000701,-1.018596,-1.403694,0.602615,1.301824,0.038797,0.800983,-0.589395,0.164715,1.858468,-3.876331,0.364529,-3.140650,0.209312,-2.722406,-0.060822,-0.082854,0.000000,-0.400343,-0.194119,0.000000
1.640000,-0.994634,-1.005608,-1.403297,0.610717,1.295736,0.040462,0.819404,-0.628137,0.168222,1.825145,-3.871086,0.336482,-3.521627,0.840325,-2.886608,-0.064822,-0.084781,0.000000,-0.399577,-0.190482,-0.000000
1.650000,-0.988486,-0.992682,-1.402884,0.619001,1.289261,0.042160,0.837473,-0.666795,0.171439,1.788082,-3.859511,0.306807,-3.888536,1.475167,-3.047699,-0.068811,-0.086670,0.000000,-0.398105,-0.186426,-0.000000
1.660000,-0.982253,-0.979824,-1.402454,0.627465,1.282401,0.043890,0.855152,-0.705306,0.174352,1.747283,-3.841581,0.275513,-4.235854,2.111998,-3.204461,-0.072782,-0.088517,0.000000,-0.395923,-0.181953,0.000000
1.670000,-0.975936,-0.967036,-1.402007,0.636103,1.275156,0.045646,0.872407,-0.743606,0.176945,1.703259,-3.817276,0.242701,-4.565832,2.748767,-3.357136,-0.076728,-0.090318,0.000000,-0.393031,-0.177116,-0.000000
1.680000,-0.969531,-0.954322,-1.401541,0.644912,1.267529,0.047427,0.889206,-0.781630,0.179201,1.656029,-3.786612,0.208385,-4.877059,3.383522,-3.505281,-0.080640,-0.092068,0.000000,-0.389430,-0.171918,0.000000
1.690000,-0.963037,-0.941686,-1.401058,0.653886,1.259524,0.049229,0.905518,-0.819317,0.181107,1.605785,-3.749619,0.172612,-5.168123,4.014308,-3.648449,-0.084514,-0.093766,0.000000,-0.385127,-0.166381,0.000000
1.700000,-0.956453,-0.929133,-1.400557,0.663020,1.251144,0.051048,0.921313,-0.856602,0.182649,1.552738,-3.706346,0.135434,-5.437611,4.639176,-3.786197,-0.088341,-0.095407,0.000000,-0.380128,-0.160526,0.000000
1.710000,-0.949776,-0.916665,-1.400037,0.672310,1.242394,0.052881,0.936562,-0.893422,0.183811,1.496898,-3.656798,0.096894,-5.678762,5.254573,-3.917739,-0.092114,-0.096988,0.000000,-0.374436,-0.154357,-0.000000
1.720000,-0.943006,-0.904286,-1.399499,0.681750,1.233278,0.054723,0.951243,-0.929717,0.184582,1.439003,-3.601215,0.057085,-5.896170,5.860342,-4.043011,-0.095827,-0.098506,0.000000,-0.368080,-0.147953,0.000000
1.730000,-0.936141,-0.892000,-1.398942,0.691333,1.223801,0.056571,0.965335,-0.965426,0.184949,1.379056,-3.539629,0.016056,-6.089078,6.454727,-4.161610,-0.099473,-0.099960,0.000000,-0.361065,-0.141315,-0.000000
1.740000,-0.929179,-0.879811,-1.398367,0.701054,1.213971,0.058421,0.978818,-1.000490,0.184900,1.317306,-3.472164,-0.026123,-6.256728,7.035972,-4.273133,-0.103046,-0.101346,0.000000,-0.353408,-0.134470,0.000000
1.750000,-0.922119,-0.867722,-1.397774,0.710907,1.203794,0.060268,0.991676,-1.034851,0.184423,1.254008,-3.398959,-0.069381,-6.398366,7.602321,-4.377176,-0.106540,-0.102663,0.000000,-0.345128,-0.127449,-0.000000
1.760000,-0.914960,-0.855737,-1.397162,0.720886,1.193277,0.062108,1.003892,-1.068450,0.183509,1.189190,-3.320054,-0.113628,-6.507221,8.149018,-4.473650,-0.109947,-0.103909,0.000000,-0.336234,-0.120256,-0.000000
1.770000,-0.907701,-0.843858,-1.396532,0.730983,1.182428,0.063937,1.015457,-1.101234,0.182147,1.123685,-3.235905,-0.158813,-6.589285,8.677673,-4.561799,-0.113262,-0.105082,0.000000,-0.326776,-0.112979,0.000000
1.780000,-0.900340,-0.832089,-1.395883,0.741193,1.171255,0.065749,1.026363,-1.133150,0.180330,1.057493,-3.146566,-0.204835,-6.644539,9.186898,-4.641180,-0.116480,-0.106183,0.000000,-0.316765,-0.105620,-0.000000
1.790000,-0.892877,-0.820434,-1.395217,0.751508,1.159768,0.067542,1.036605,-1.164148,0.178048,0.990883,-3.052237,-0.251606,-6.672961,9.675304,-4.711353,-0.119596,-0.107209,0.000000,-0.306227,-0.098211,-0.000000
1.800000,-0.885310,-0.808895,-1.394533,0.761923,1.147975,0.069309,1.046180,-1.194179,0.175296,0.924124,-2.953134,-0.299030,-6.674531,10.141502,-4.771876,-0.122603,-0.108161,0.000000,-0.295189,-0.090781,-0.000000
1.810000,-0.877638,-0.797475,-1.393831,0.772430,1.135887,0.071046,1.055085,-1.223194,0.172066,0.857253,-2.849327,-0.346980,-6.643443,10.580106,-4.823052,-0.125498,-0.109038,0.000000,-0.283664,-0.083337,0.000000
1.820000,-0.869861,-0.786178,-1.393112,0.783022,1.123515,0.072748,1.063327,-1.251152,0.168354,0.791084,-2.741435,-0.395422,-6.586171,10.994213,-4.863602,-0.128275,-0.109841,0.000000,-0.271719,-0.075965,-0.000000
1.830000,-0.861977,-0.775006,-1.392376,0.793694,1.110868,0.074411,1.070909,-1.278010,0.164156,0.725615,-2.629527,-0.444215,-6.503402,11.382926,-4.892994,-0.130931,-0.110570,0.000000,-0.259368,-0.068666,-0.000000
1.840000,-0.853987,-0.763961,-1.391624,0.804438,1.097958,0.076030,1.077842,-1.303730,0.159469,0.661098,-2.513864,-0.493243,-6.395825,11.745344,-4.910693,-0.133461,-0.111226,0.000000,-0.246642,-0.061470,0.000000
1.850000,-0.845888,-0.753047,-1.390856,0.815249,1.084797,0.077599,1.084135,-1.328275,0.154291,0.597779,-2.394711,-0.542388,-6.264126,12.080569,-4.916167,-0.135863,-0.111811,0.000000,-0.233574,-0.054404,-0.000000
1.860000,-0.837681,-0.742266,-1.390072,0.826119,1.071397,0.079114,1.089800,-1.351611,0.148622,0.535703,-2.272169,-0.591501,-6.104179,12.383228,-4.909450,-0.138131,-0.112325,0.000000,-0.220181,-0.047476,0.000000
1.870000,-0.829366,-0.731620,-1.389274,0.837043,1.057769,0.080570,1.094855,-1.373709,0.142462,0.475554,-2.146942,-0.640507,-5.922077,12.657443,-4.889372,-0.140265,-0.112770,0.000000,-0.206537,-0.040755,-0.000000
1.880000,-0.820940,-0.721112,-1.388461,0.848014,1.043927,0.081962,1.099318,-1.394541,0.135813,0.417331,-2.019116,-0.689242,-5.719097,12.902863,-4.855329,-0.142261,-0.113149,0.000000,-0.192657,-0.034247,0.000000
1.890000,-0.812405,-0.710742,-1.387634,0.859027,1.029883,0.083285,1.103209,-1.414084,0.128678,0.361237,-1.888982,-0.737565,-5.496516,13.119135,-4.806720,-0.144118,-0.113463,0.000000,-0.178577,-0.027971,0.000000
1.900000,-0.803760,-0.700515,-1.386795,0.870076,1.015650,0.084534,1.106550,-1.432314,0.121063,0.307462,-1.756832,-0.785326,-5.255613,13.305910,-4.742941,-0.145832,-0.113715,0.000000,-0.164330,-0.021951,0.000000
1.910000,-0.795004,-0.690430,-1.385944,0.881156,1.001241,0.085704,1.109365,-1.449213,0.112974,0.256047,-1.622794,-0.832385,-4.994261,13.458567,-4.663040,-0.147404,-0.113907,0.000000,-0.149936,-0.016193,0.000000
1.920000,-0.786137,-0.680490,-1.385082,0.892262,0.986670,0.086792,1.111680,-1.464766,0.104418,0.207476,-1.487569,-0.878548,-4.717559,13.581546,-4.566807,-0.148831,-0.114043,0.000000,-0.135469,-0.010746,-0.000000
1.930000,-0.777158,-0.670697,-1.384209,0.903388,0.971950,0.087791,1.113524,-1.478960,0.095406,0.161742,-1.351262,-0.923665,-4.427200,13.675016,-4.453681,-0.150113,-0.114126,0.000000,-0.120945,-0.005612,-0.000000
1.940000,-0.768069,-0.661052,-1.383326,0.914531,0.957095,0.088698,1.114925,-1.491788,0.085949,0.118972,-1.214166,-0.967564,-4.124879,13.739150,-4.323101,-0.151250,-0.114158,0.000000,-0.106398,-0.000806,-0.000000
1.950000,-0.758868,-0.651556,-1.382435,0.925686,0.942119,0.089509,1.115914,-1.503242,0.076060,0.079278,-1.076576,-1.010067,-3.812289,13.774117,-4.174509,-0.152241,-0.114143,0.000000,-0.091862,0.003660,0.000000
1.960000,-0.749555,-0.642210,-1.381536,0.936848,0.927035,0.090218,1.116520,-1.513317,0.065752,0.042687,-0.938632,-1.051065,-3.489417,13.776333,-4.005505,-0.153087,-0.114085,0.000000,-0.077355,0.007783,0.000000
1.970000,-0.740131,-0.633015,-1.380631,0.948015,0.911857,0.090822,1.116778,-1.522015,0.055044,0.009436,-0.800976,-1.090196,-3.159875,13.750185,-3.817592,-0.153788,-0.113987,0.000000,-0.062948,0.011536,-0.000000
1.980000,-0.730595,-0.623973,-1.379720,0.959183,0.896599,0.091318,1.116720,-1.529338,0.043955,-0.020495,-0.663721,-1.127352,-2.825566,13.696304,-3.610437,-0.154346,-0.113853,0.000000,-0.048653,0.014921,-0.000000
1.990000,-0.720947,-0.615083,-1.378805,0.970348,0.881275,0.091700,1.116380,-1.535292,0.032505,-0.047066,-0.527140,-1.162340,-2.488394,13.615319,-3.383703,-0.154762,-0.113686,0.000000,-0.034503,0.017934,0.000000
2.000000,-0.711188,-0.606348,-1.377886,0.981509,0.865898,0.091967,1.115790,-1.539884,0.020716,-0.070259,-0.391503,-1.194960,-2.150262,13.507863,-3.137057,-0.155037,-0.113491,0.000000,-0.020527,0.020570,0.000000
2.010000,-0.701317,-0.597766,-1.376966,0.992663,0.850482,0.092114,1.114986,-1.543125,0.008612,-0.090078,-0.256961,-1.225154,-1.812988,13.371824,-2.866608,-0.155173,-0.113271,0.000000,-0.006742,0.022833,-0.000000
2.020000,-0.691335,-0.589338,-1.376045,1.003808,0.835040,0.092138,1.114000,-1.545028,-0.003778,-0.106532,-0.124027,-1.252384,-1.478573,13.210910,-2.576011,-0.155172,-0.113030,0.000000,0.006795,0.024718,-0.000000
2.030000,-0.681241,-0.581065,-1.375124,1.014943,0.819585,0.092037,1.112866,-1.545611,-0.016425,-0.119665,0.007178,-1.276607,-1.148928,13.026089,-2.265368,-0.155038,-0.112772,0.000000,0.020070,0.026232,-0.000000
2.040000,-0.671036,-0.572946,-1.374204,1.026065,0.804132,0.091809,1.111617,-1.544891,-0.029299,-0.129533,0.136419,-1.297625,-0.825970,12.818326,-1.934779,-0.154772,-0.112500,0.000000,0.033060,0.027380,-0.000000
2.050000,-0.660720,-0.564982,-1.373288,1.037175,0.788692,0.091451,1.110286,-1.542890,-0.042366,-0.136213,0.263471,-1.315237,-0.511611,12.588590,-1.584344,-0.154378,-0.112219,0.000000,0.045740,0.028168,-0.000000
2.060000,-0.650292,-0.557172,-1.372376,1.048271,0.773278,0.090961,1.108904,-1.539629,-0.055594,-0.139752,0.388160,-1.329446,-0.208979,12.336837,-1.209096,-0.153858,-0.111931,0.000000,0.058095,0.028605,-0.000000
2.070000,-0.639754,-0.549517,-1.371469,1.059353,0.757903,0.090338,1.107501,-1.535135,-0.068942,-0.140379,0.510187,-1.339582,0.081374,12.065166,-0.814824,-0.153217,-0.111641,0.000000,0.070088,0.028706,0.000000
2.080000,-0.629105,-0.542014,-1.370569,1.070421,0.742580,0.089582,1.106106,-1.529435,-0.082372,-0.138172,0.629401,-1.345682,0.357682,11.774668,-0.402249,-0.152458,-0.111351,0.000000,0.081708,0.028483,0.000000
2.090000,-0.618346,-0.534665,-1.369678,1.081475,0.727319,0.088691,1.104746,-1.522557,-0.095842,-0.133278,0.745621,-1.347568,0.618181,11.466433,0.027907,-0.151584,-0.111066,0.000000,0.092937,0.027950,-0.000000
2.100000,-0.607476,-0.527468,-1.368796,1.092516,0.712132,0.087665,1.103449,-1.514533,-0.109309,-0.125867,0.858674,-1.345067,0.861106,11.141550,0.474925,-0.150600,-0.110787,0.000000,0.103760,0.027124,-0.000000
2.110000,-0.596496,-0.520422,-1.367925,1.103544,0.697032,0.086505,1.102238,-1.505395,-0.122731,-0.116032,0.968375,-1.338252,1.082437,10.801745,0.944065,-0.149510,-0.110518,0.000000,0.114163,0.026015,0.000000
2.120000,-0.585405,-0.513527,-1.367066,1.114561,0.682028,0.085211,1.101135,-1.495177,-0.136058,-0.104187,1.074632,-1.326404,1.282939,10.447396,1.427891,-0.148318,-0.110262,0.000000,0.124132,0.024660,-0.000000
2.130000,-0.574204,-0.506781,-1.366221,1.125567,0.667132,0.083784,1.100160,-1.483915,-0.149243,-0.090447,1.177278,-1.309651,1.461122,10.079513,1.924949,-0.147029,-0.110020,0.000000,0.133657,0.023072,-0.000000
2.140000,-0.562894,-0.500184,-1.365391,1.136565,0.652353,0.082227,1.099332,-1.471644,-0.162234,-0.075044,1.276181,-1.287866,1.615496,9.699110,2.433786,-0.145647,-0.109796,0.000000,0.142728,0.021273,-0.000000
2.150000,-0.551473,-0.493733,-1.364577,1.147555,0.637702,0.080540,1.098664,-1.458404,-0.174983,-0.058222,1.371221,-1.260940,1.744573,9.307199,2.952948,-0.144176,-0.109591,0.000000,0.151338,0.019288,0.000000
2.160000,-0.539943,-0.487429,-1.363781,1.158539,0.623188,0.078728,1.098172,-1.444234,-0.187438,-0.040120,1.462226,-1.229016,1.843782,8.906399,3.487016,-0.142622,-0.109407,0.000000,0.159477,0.017132,-0.000000
2.170000,-0.528302,-0.481269,-1.363003,1.169519,0.608820,0.076793,1.097865,-1.429173,-0.199545,-0.021302,1.549245,-1.191447,1.915091,8.495918,4.027763,-0.140988,-0.109245,0.000000,0.167148,0.014854,-0.000000
2.180000,-0.516552,-0.475252,-1.362245,1.180497,0.594607,0.074738,1.097748,-1.413263,-0.211249,-0.001915,1.632115,-1.148446,1.957388,8.076572,4.572996,-0.139280,-0.109107,0.000000,0.174343,0.012472,0.000000
2.190000,-0.504692,-0.469376,-1.361509,1.191474,0.580558,0.072569,1.097827,-1.396545,-0.222496,0.017746,1.710750,-1.099980,1.969560,7.649177,5.120521,-0.137503,-0.108993,0.000000,0.181061,0.010013,0.000000
2.200000,-0.492723,-0.463640,-1.360794,1.202454,0.566679,0.070290,1.098103,-1.379062,-0.233230,0.037373,1.785074,-1.046036,1.950495,7.214547,5.668148,-0.135661,-0.108905,0.000000,0.187300,0.007507,-0.000000
2.210000,-0.480643,-0.458042,-1.360103,1.213437,0.552979,0.067907,1.098575,-1.360859,-0.243400,0.056808,1.854951,-0.986824,1.895036,6.775235,6.218731,-0.133759,-0.108842,0.000000,0.193057,0.004971,0.000000
2.220000,-0.468454,-0.452580,-1.359436,1.224426,0.539464,0.065424,1.099237,-1.341978,-0.252949,0.075344,1.920482,-0.921903,1.806611,6.330106,6.764411,-0.131801,-0.108805,0.000000,0.198342,0.002469,-0.000000
2.230000,-0.456155,-0.447252,-1.358795,1.235422,0.526141,0.062850,1.100079,-1.322464,-0.261820,0.092828,1.981536,-0.851561,1.684600,5.879765,7.302378,-0.129793,-0.108792,0.000000,0.203152,0.000018,0.000000
2.240000,-0.443745,-0.442057,-1.358180,1.246428,0.513017,0.060190,1.101089,-1.302362,-0.269962,0.108922,2.038062,-0.775890,1.528388,5.424812,7.829819,-0.127740,-0.108804,0.000000,0.207491,-0.002350,0.000000
2.250000,-0.431226,-0.436991,-1.357591,1.257445,0.500096,0.057453,1.102251,-1.281718,-0.277321,0.123280,2.090018,-0.695009,1.337356,4.965852,8.343925,-0.125645,-0.108839,0.000000,0.211361,-0.004601,-0.000000
2.260000,-0.418597,-0.432054,-1.357031,1.268473,0.487384,0.054647,1.103550,-1.260578,-0.283847,0.135768,2.137323,-0.609181,1.105399,4.504624,8.844799,-0.123514,-0.108896,0.000000,0.214765,-0.006720,-0.000000
2.270000,-0.405857,-0.427243,-1.356499,1.279516,0.474886,0.051779,1.104958,-1.238987,-0.289488,0.145515,2.180050,-0.518308,0.838061,4.040454,9.326358,-0.121351,-0.108974,0.000000,0.217714,-0.008625,0.000000
2.280000,-0.393006,-0.422556,-1.355996,1.290573,0.462606,0.048860,1.106451,-1.216992,-0.294197,0.152412,2.218124,-0.422729,0.535394,3.573806,9.785435,-0.119161,-0.109069,0.000000,0.220209,-0.010305,-0.000000
2.290000,-0.380045,-0.417990,-1.355522,1.301645,0.450547,0.045899,1.107996,-1.194640,-0.297928,0.156105,2.251520,-0.322685,0.197454,3.105144,10.218861,-0.116949,-0.109181,0.000000,0.222256,-0.011722,0.000000
2.300000,-0.366973,-0.413544,-1.355078,1.312733,0.438714,0.042905,1.109561,-1.171977,-0.300637,0.156243,2.280221,-0.218448,-0.175705,2.634932,10.623470,-0.114718,-0.109305,0.000000,0.223862,-0.012842,-0.000000
2.310000,-0.353790,-0.409215,-1.354664,1.323836,0.427109,0.039889,1.111111,-1.149051,-0.302284,0.152762,2.304221,-0.110312,-0.591314,2.163485,10.995841,-0.112473,-0.109438,0.000000,0.225032,-0.013655,-0.000000
2.320000,-0.340496,-0.405001,-1.354280,1.334955,0.415734,0.036863,1.112602,-1.125909,-0.302831,0.144628,2.323496,0.001363,-1.041142,1.691433,11.333090,-0.110218,-0.109578,0.000000,0.225771,-0.014059,0.000000
2.330000,-0.327091,-0.400900,-1.353926,1.346088,0.404591,0.033837,1.113988,-1.102597,-0.302246,0.131829,2.338049,0.116222,-1.524240,1.219257,11.632079,-0.107959,-0.109720,0.000000,0.226087,-0.014049,-0.000000
2.340000,-0.313575,-0.396908,-1.353603,1.357234,0.393682,0.030822,1.115222,-1.079163,-0.300498,0.114036,2.347882,0.233867,-2.039663,0.747439,11.889670,-0.105698,-0.109859,0.000000,0.225984,-0.013588,0.000000
2.350000,-0.299947,-0.393025,-1.353310,1.368392,0.383008,0.027831,1.116251,-1.055655,-0.297561,0.090931,2.353000,0.353867,-2.586465,0.276461,12.102727,-0.103440,-0.109992,0.000000,0.225471,-0.012640,-0.000000
2.360000,-0.286207,-0.389247,-1.353046,1.379558,0.372569,0.024875,1.117025,-1.032118,-0.293412,0.062552,2.353495,0.475926,-3.172458,-0.195210,12.263997,-0.101190,-0.110112,0.000000,0.224558,-0.011204,-0.000000
2.370000,-0.272355,-0.385573,-1.352812,1.390731,0.362366,0.021966,1.117482,-1.008601,-0.288038,0.027778,2.349193,0.599163,-3.786865,-0.664832,12.374963,-0.098951,-0.110215,0.000000,0.223238,-0.009159,-0.000000
2.380000,-0.258392,-0.381999,-1.352607,1.401906,0.352397,0.019118,1.117560,-0.985150,-0.281426,-0.013274,2.340208,0.723248,-4.427664,-1.131675,12.432991,-0.096727,-0.110294,0.000000,0.221522,-0.006511,0.000000
2.390000,-0.244317,-0.378524,-1.352430,1.413081,0.342662,0.016342,1.117195,-0.961812,-0.273572,-0.060857,2.326571,0.847638,-5.092837,-1.595012,12.435448,-0.094521,-0.110344,0.000000,0.219418,-0.003224,-0.000000
2.400000,-0.230131,-0.375145,-1.352280,1.424249,0.333160,0.013651,1.116320,-0.938634,-0.264474,-0.115205,2.308322,0.971763,-5.780364,-2.054114,12.379702,-0.092339,-0.110357,0.000000,0.216932,0.000735,-0.000000
2.410000,-0.215832,-0.371860,-1.352156,1.435405,0.323889,0.011057,1.114871,-0.915659,-0.254135,-0.176163,2.285650,1.095370,-6.497543,-2.511905,12.254506,-0.090184,-0.110327,0.000000,0.214081,0.005359,-0.000000
2.420000,-0.201423,-0.368667,-1.352058,1.446544,0.314846,0.008572,1.112773,-0.892936,-0.242572,-0.244797,2.258267,1.217030,-7.231898,-2.963556,12.066895,-0.088059,-0.110246,0.000000,0.210844,0.010776,0.000000
2.430000,-0.186902,-0.365563,-1.351984,1.457658,0.306029,0.006209,1.109951,-0.870509,-0.229802,-0.320847,2.226403,1.336495,-7.980267,-3.407893,11.815290,-0.085968,-0.110108,0.000000,0.207241,0.016969,0.000000
2.440000,-0.172269,-0.362545,-1.351934,1.468740,0.297435,0.003980,1.106331,-0.848423,-0.215851,-0.404439,2.190138,1.453117,-8.739492,-3.843740,11.498114,-0.083915,-0.109903,0.000000,0.203279,0.023969,0.000000
2.450000,-0.157527,-0.359613,-1.351904,1.479782,0.289059,0.001896,1.101836,-0.826721,-0.200752,-0.495663,2.149561,1.566233,-9.506412,-4.269920,11.113788,-0.081904,-0.109624,0.000000,0.198964,0.031799,-0.000000
2.460000,-0.142674,-0.356764,-1.351895,1.490774,0.280899,-0.000032,1.096395,-0.805444,-0.184535,-0.594245,2.104934,1.675709,-10.286373,-4.689270,10.646957,-0.079937,-0.109263,0.000000,0.194318,0.040447,-0.000000
2.470000,-0.127712,-0.353995,-1.351904,1.501706,0.272949,-0.001791,1.089926,-0.784636,-0.167254,-0.701012,2.055996,1.779559,-11.066669,-5.096111,10.111507,-0.078019,-0.108810,0.000000,0.189320,0.050025,-0.000000
2.480000,-0.112640,-0.351304,-1.351930,1.512568,0.265204,-0.003373,1.082349,-0.764337,-0.148963,-0.815566,2.003059,1.877711,-11.843096,-5.488776,9.507547,-0.076152,-0.108256,0.000000,0.183994,0.060509,-0.000000
2.490000,-0.097460,-0.348690,-1.351971,1.523349,0.257660,-0.004767,1.073588,-0.744587,-0.129721,-0.937847,1.946273,1.969482,-12.611453,-5.865599,8.835184,-0.074340,-0.107593,0.000000,0.178349,0.071912,0.000000
2.500000,-0.082173,-0.346150,-1.352025,1.534036,0.250311,-0.005965,1.063567,-0.725424,-0.109597,-1.067754,1.885806,2.054187,-13.367540,-6.224912,8.094528,-0.072586,-0.106811,0.000000,0.172398,0.084244,0.000000
2.510000,-0.066780,-0.343683,-1.352090,1.544616,0.243150,-0.006957,1.052211,-0.706882,-0.088655,-1.204922,1.821938,2.131893,-14.112734,-6.567537,7.266802,-0.070893,-0.105901,0.000000,0.166158,0.097482,-0.000000
2.520000,-0.051282,-0.341286,-1.352164,1.555075,0.236171,-0.007736,1.039444,-0.688996,-0.066987,-1.349688,1.754636,2.200147,-14.836571,-6.889014,6.373314,-0.069264,-0.104853,0.000000,0.159634,0.111699,0.000000
2.530000,-0.035679,-0.338959,-1.352244,1.565400,0.229367,-0.008295,1.025193,-0.671799,-0.044683,-1.501566,1.684234,2.259148,-15.534165,-7.187371,5.416482,-0.067701,-0.103658,0.000000,0.152846,0.126855,-0.000000
2.540000,-0.019974,-0.336699,-1.352329,1.575574,0.222732,-0.008628,1.009390,-0.655321,-0.021837,-1.660268,1.610973,2.308274,-16.200632,-7.460638,4.398730,-0.066208,-0.102307,0.000000,0.145813,0.142939,-0.000000
2.550000,-0.004168,-0.334504,-1.352416,1.585582,0.216259,-0.008730,0.991966,-0.639589,0.001448,-1.825458,1.535112,2.346927,-16.831088,-7.706843,3.322477,-0.064786,-0.100790,0.000000,0.138555,0.159935,0.000000
2.560000,0.011737,-0.332373,-1.352502,1.595408,0.209938,-0.008598,0.972860,-0.624627,0.025074,-1.996775,1.456880,2.375413,-17.420091,-7.922698,2.168012,-0.063437,-0.099099,0.000000,0.131085,0.177810,-0.000000
2.570000,0.027739,-0.330304,-1.352587,1.605034,0.203763,-0.008228,0.952012,-0.610458,0.048916,-2.173733,1.376702,2.391106,-17.963381,-8.107709,0.962600,-0.062164,-0.097224,0.000000,0.123452,0.196549,0.000000
2.580000,0.043837,-0.328297,-1.352666,1.614442,0.197726,-0.007619,0.929368,-0.597099,0.072855,-2.355874,1.294835,2.394512,-18.456140,-8.260066,-0.288630,-0.060969,-0.095157,0.000000,0.115673,0.216101,0.000000
2.590000,0.060027,-0.326350,-1.352738,1.623615,0.191819,-0.006771,0.904879,-0.584566,0.096764,-2.542671,1.211616,2.385198,-18.893553,-8.377958,-1.580545,-0.059851,-0.092891,0.000000,0.107777,0.236418,-0.000000
2.600000,0.076308,-0.324460,-1.352801,1.632533,0.186032,-0.005684,0.878501,-0.572870,0.120515,-2.733545,1.127397,2.362782,-19.270802,-8.459575,-2.908014,-0.058813,-0.090418,0.000000,0.099796,0.257440,0.000000
2.610000,0.092677,-0.322628,-1.352851,1.641179,0.180359,-0.004362,0.850193,-0.562022,0.143984,-2.928234,1.042309,2.327773,-19.573877,-8.496984,-4.287049,-0.057856,-0.087731,0.000000,0.091737,0.279128,0.000000
2.620000,0.109131,-0.320853,-1.352887,1.649531,0.174789,-0.002806,0.819927,-0.552024,0.167024,-3.125204,0.957314,2.277910,-19.808280,-8.495247,-5.688788,-0.056979,-0.084824,0.000000,0.083708,0.301333,-0.000000
2.630000,0.125667,-0.319132,-1.352907,1.657571,0.169315,-0.001023,0.787682,-0.542875,0.189495,-3.324159,0.872538,2.213947,-19.970320,-8.453303,-7.105510,-0.056182,-0.081693,0.000000,0.075717,0.323999,-0.000000
2.640000,0.142281,-0.317466,-1.352907,1.665278,0.163929,0.000981,0.753440,-0.534571,0.211256,-3.524357,0.788386,2.135775,-20.056307,-8.370091,-8.529495,-0.055464,-0.078333,0.000000,0.067805,0.347027,-0.000000
2.650000,0.158971,-0.315854,-1.352886,1.672633,0.158621,0.003199,0.717193,-0.527104,0.232163,-3.725019,0.705277,2.043359,-20.062549,-8.244551,-9.953023,-0.054825,-0.074741,0.000000,0.060018,0.370309,0.000000
2.660000,0.175733,-0.314294,-1.352842,1.679615,0.153384,0.005621,0.678933,-0.520466,0.252082,-3.926081,0.623211,1.937287,-19.966367,-8.064797,-11.382131,-0.054264,-0.070914,0.000000,0.052354,0.393799,-0.000000
2.670000,0.192562,-0.312786,-1.352773,1.686205,0.148209,0.008237,0.638676,-0.514633,0.270862,-4.124911,0.543642,1.816389,-19.785383,-7.841919,-12.793658,-0.053777,-0.066853,0.000000,0.044977,0.417194,-0.000000
2.680000,0.209455,-0.311329,-1.352677,1.692382,0.143089,0.011034,0.596442,-0.509585,0.288363,-4.321502,0.466515,1.681503,-19.518231,-7.576180,-14.178199,-0.053363,-0.062559,0.000000,0.037883,0.440440,0.000000
2.690000,0.226408,-0.309924,-1.352552,1.698127,0.138015,0.013999,0.552257,-0.505293,0.304446,-4.514984,0.392260,1.532946,-19.163547,-7.267845,-15.526350,-0.053018,-0.058033,0.000000,0.031120,0.463396,-0.000000
2.700000,0.243416,-0.308569,-1.352397,1.703421,0.132980,0.017118,0.506156,-0.501728,0.318978,-4.704477,0.321300,1.371129,-18.719964,-6.917179,-16.828705,-0.052740,-0.053279,0.000000,0.024740,0.485912,-0.000000
2.710000,0.260475,-0.307264,-1.352209,1.708244,0.127978,0.020373,0.458172,-0.498861,0.331826,-4.890153,0.253514,1.196526,-18.159076,-6.510736,-18.075102,-0.052523,-0.048302,0.000000,0.018735,0.507946,-0.000000
2.720000,0.277580,-0.306009,-1.351989,1.712579,0.123001,0.023748,0.408373,-0.496644,0.342868,-5.068571,0.190607,1.009808,-17.509870,-6.064170,-19.256987,-0.052363,-0.043109,0.000000,0.013290,0.529073,0.000000
2.730000,0.294725,-0.304804,-1.351734,1.716406,0.118043,0.027224,0.356823,-0.495033,0.351984,-5.240063,0.132358,0.811633,-16.774288,-5.579423,-20.365049,-0.052255,-0.037709,0.000000,0.008388,0.549263,0.000000
2.740000,0.311906,-0.303648,-1.351444,1.719710,0.113099,0.030781,0.303597,-0.493980,0.359065,-5.403775,0.079139,0.602784,-15.954277,-5.058440,-21.389977,-0.052193,-0.032112,0.000000,0.004071,0.568360,-0.000000
2.750000,0.329117,-0.302542,-1.351118,1.722473,0.108162,0.034398,0.248777,-0.493432,0.364007,-5.558873,0.031303,0.384141,-15.051782,-4.503163,-22.322458,-0.052172,-0.026331,0.000000,0.000381,0.586213,-0.000000
2.760000,0.346354,-0.301485,-1.350756,1.724680,0.103229,0.038054,0.192439,-0.493340,0.366709,-5.705693,-0.011323,0.155872,-14.039679,-3.902752,-23.132926,-0.052184,-0.020376,0.000000,-0.002696,0.602797,-0.000000
2.770000,0.363609,-0.300477,-1.350357,1.726317,0.098294,0.041725,0.134698,-0.493638,0.367099,-5.840715,-0.047226,-0.079060,-12.952540,-3.273500,-23.834804,-0.052223,-0.014263,0.000000,-0.005011,0.617680,0.000000
2.780000,0.380878,-0.299519,-1.349921,1.727370,0.093355,0.045388,0.075662,-0.494264,0.365107,-5.964512,-0.076708,-0.320439,-11.795872,-2.618914,-24.421262,-0.052282,-0.008011,0.000000,-0.006593,0.630875,-0.000000
2.790000,0.398155,-0.298610,-1.349449,1.727826,0.088408,0.049019,0.015447,-0.495150,0.360673,-6.076419,-0.099532,-0.567077,-10.575179,-1.942504,-24.885468,-0.052353,-0.001635,0.000000,-0.007423,0.642268,-0.000000
2.800000,0.415433,-0.297751,-1.348941,1.727675,0.083451,0.052593,-0.045825,-0.496231,0.353752,-6.175821,-0.115497,-0.817718,-9.295966,-1.247779,-25.220592,-0.052428,0.004846,0.000000,-0.007489,0.651763,-0.000000
2.810000,0.432706,-0.296941,-1.348398,1.726907,0.078483,0.056086,-0.108035,-0.497440,0.344293,-6.262973,-0.124737,-1.072538,-7.943233,-0.530703,-25.381855,-0.052500,0.011413,0.000000,-0.006808,0.659360,-0.000000
2.820000,0.449969,-0.296181,-1.347820,1.725512,0.073502,0.059471,-0.171038,-0.498702,0.332298,-6.335451,-0.126413,-1.326589,-6.545499,0.196748,-25.405020,-0.052561,0.018044,0.000000,-0.005325,0.664796,-0.000000
2.830000,0.467214,-0.295471,-1.347209,1.723484,0.068509,0.062724,-0.234696,-0.499944,0.317763,-6.393760,-0.120782,-1.580171,-5.110781,0.930141,-25.287900,-0.052604,0.024720,0.000000,-0.003076,0.668127,-0.000000
2.840000,0.484436,-0.294811,-1.346566,1.720817,0.063504,0.065818,-0.298865,-0.501093,0.300701,-6.437570,-0.107805,-1.831872,-3.647093,1.665045,-25.028311,-0.052620,0.031418,0.000000,-0.000075,0.669332,-0.000000
2.850000,0.501628,-0.294201,-1.345893,1.717506,0.058488,0.068729,-0.363399,-0.502076,0.281137,-6.466632,-0.087491,-2.080255,-2.162451,2.397027,-24.624068,-0.052603,0.038118,0.000000,0.003653,0.668411,0.000000
2.860000,0.518784,-0.293642,-1.345192,1.713548,0.053463,0.071433,-0.428149,-0.502818,0.259092,-6.480821,-0.059832,-2.325668,-0.663719,3.120208,-24.027407,-0.052545,0.044798,0.000000,0.008097,0.665381,0.000000
2.870000,0.535897,-0.293132,-1.344465,1.708942,0.048432,0.073904,-0.492965,-0.503248,0.234646,-6.479942,-0.025061,-2.562360,0.839795,3.831780,-23.287303,-0.052439,0.051437,0.000000,0.013182,0.660293,-0.000000
2.880000,0.552961,-0.292673,-1.343715,1.703689,0.043399,0.076118,-0.557697,-0.503296,0.207872,-6.464037,0.016751,-2.790948,2.339935,4.527488,-22.407153,-0.052279,0.058015,0.000000,0.018887,0.653206,-0.000000
2.890000,0.569969,-0.292264,-1.342944,1.697789,0.038368,0.078054,-0.622196,-0.502891,0.178858,-6.433181,0.065422,-3.010048,3.828545,5.203077,-21.390352,-0.052059,0.064513,0.000000,0.025167,0.644200,0.000000
2.900000,0.586915,-0.291905,-1.342155,1.691246,0.033343,0.079688,-0.686312,-0.501965,0.147707,-6.387531,0.120731,-3.218311,5.297467,5.854292,-20.240298,-0.051774,0.070911,0.000000,0.031973,0.633370,0.000000
2.910000,0.603792,-0.291597,-1.341351,1.684065,0.028331,0.081002,-0.749890,-0.500451,0.114515,-6.326571,0.182788,-3.416024,6.719514,6.467396,-18.919883,-0.051418,0.077191,0.000000,0.039299,0.620737,-0.000000
2.920000,0.620594,-0.291339,-1.340536,1.676251,0.023336,0.081973,-0.812796,-0.498290,0.079433,-6.252404,0.250396,-3.598111,8.107892,7.048776,-17.477966,-0.050987,0.083337,0.000000,0.046980,0.606638,-0.000000
2.930000,0.637315,-0.291130,-1.339713,1.667811,0.018367,0.082584,-0.874892,-0.495424,0.042603,-6.164545,0.323647,-3.765207,9.456775,7.595339,-15.922903,-0.050477,0.089334,0.000000,0.055016,0.591103,0.000000
2.940000,0.653948,-0.290971,-1.338885,1.658756,0.013430,0.082820,-0.936043,-0.491799,0.004182,-6.063419,0.402177,-3.916220,10.760336,8.103992,-14.263051,-0.049885,0.095170,0.000000,0.063351,0.574271,-0.000000
2.950000,0.670488,-0.290862,-1.338058,1.649094,0.008534,0.082663,-0.996118,-0.487364,-0.035664,-5.949509,0.485590,-4.050146,12.012750,8.571640,-12.506765,-0.049209,0.100830,0.000000,0.071930,0.556283,0.000000
2.960000,0.686928,-0.290801,-1.337233,1.638837,0.003686,0.082102,-1.054980,-0.482063,-0.076772,-5.822216,0.574339,-4.167130,13.179445,8.973064,-10.635434,-0.048445,0.106304,0.000000,0.080791,0.537160,-0.000000
2.970000,0.703262,-0.290788,-1.336417,1.627999,-0.001105,0.081125,-1.112524,-0.475865,-0.118943,-5.684834,0.665891,-4.263804,14.286861,9.330004,-8.687684,-0.047593,0.111583,0.000000,0.089663,0.517345,-0.000000
2.980000,0.719486,-0.290822,-1.335612,1.616591,-0.005829,0.079721,-1.168641,-0.468734,-0.161982,-5.536684,0.760789,-4.340667,15.332692,9.642077,-6.675173,-0.046652,0.116660,0.000000,0.098602,0.496840,0.000000
2.990000,0.735592,-0.290904,-1.334824,1.604631,-0.010476,0.077883,-1.223224,-0.460639,-0.205689,-5.378393,0.858582,-4.397130,16.314632,9.908898,-4.609557,-0.045621,0.121529,0.000000,0.107565,0.475779,0.000000
3.000000,0.751577,-0.291032,-1.334056,1.592132,-0.015038,0.075605,-1.276177,-0.451554,-0.249855,-5.210612,0.958815,-4.432720,17.230376,10.130081,-2.502497,-0.044500,0.126184,0.000000,0.116512,0.454294,-0.000000
3.010000,0.767433,-0.291204,-1.333313,1.579113,-0.019504,0.072885,-1.327394,-0.441453,-0.294275,-5.032774,1.061311,-4.447301,18.046304,10.298136,-0.360103,-0.043290,0.130622,0.000000,0.125434,0.432388,-0.000000
3.020000,0.783157,-0.291421,-1.332600,1.565590,-0.023864,0.069720,-1.376806,-0.430323,-0.338730,-4.848511,1.164943,-4.440112,18.795257,10.420656,1.799742,-0.041992,0.134840,0.000000,0.134232,0.410469,0.000000
3.030000,0.798743,-0.291681,-1.331920,1.551583,-0.028107,0.066111,-1.424340,-0.418151,-0.383005,-4.657087,1.269574,-4.411289,19.478765,10.498125,3.964699,-0.040606,0.138838,0.000000,0.142910,0.388503,0.000000
3.040000,0.814187,-0.291983,-1.331279,1.537110,-0.032223,0.062061,-1.469926,-0.404930,-0.426883,-4.459149,1.374757,-4.360842,20.098356,10.531031,6.122432,-0.039134,0.142616,0.000000,0.151441,0.366582,-0.000000
3.050000,0.829484,-0.292325,-1.330681,1.522191,-0.036202,0.057575,-1.513503,-0.390656,-0.470150,-4.255328,1.480048,-4.288905,20.655558,10.519858,8.260603,-0.037578,0.146176,0.000000,0.159805,0.344791,0.000000
3.060000,0.844630,-0.292707,-1.330129,1.506846,-0.040033,0.052661,-1.555008,-0.375323,-0.512586,-4.045558,1.585657,-4.195301,21.134643,10.448726,10.355884,-0.035938,0.149517,0.000000,0.168043,0.323143,-0.000000
3.070000,0.859620,-0.293125,-1.329629,1.491098,-0.043705,0.047327,-1.594399,-0.358945,-0.553987,-3.832056,1.689616,-4.081440,21.556510,10.336492,12.408274,-0.034218,0.152644,0.000000,0.175997,0.301839,-0.000000
3.080000,0.874450,-0.293580,-1.329184,1.474966,-0.047209,0.041585,-1.631636,-0.341535,-0.594147,-3.614606,1.792258,-3.947315,21.924799,10.185645,14.406783,-0.032419,0.155559,0.000000,0.183724,0.280862,0.000000
3.090000,0.889118,-0.294069,-1.328798,1.458472,-0.050533,0.035449,-1.666680,-0.323106,-0.632868,-3.393726,1.893209,-3.793521,22.243152,9.998675,16.340418,-0.030544,0.158265,0.000000,0.191217,0.260250,-0.000000
3.100000,0.903619,-0.294590,-1.328476,1.441639,-0.053667,0.028933,-1.699501,-0.303677,-0.669954,-3.169897,1.992120,-3.620760,22.515210,9.778073,18.198189,-0.028596,0.160767,0.000000,0.198471,0.240032,0.000000
3.110000,0.917950,-0.295142,-1.328221,1.424490,-0.056603,0.022055,-1.730068,-0.283265,-0.705212,-2.943392,2.089305,-3.428933,22.740274,9.510195,19.946037,-0.026575,0.163069,0.000000,0.205544,0.220224,-0.000000
3.120000,0.932108,-0.295722,-1.328036,1.407046,-0.059330,0.014835,-1.758362,-0.261901,-0.738476,-2.715026,2.182955,-3.221126,22.926857,9.215639,21.598862,-0.024485,0.165175,0.000000,0.212300,0.200841,0.000000
3.130000,0.946090,-0.296328,-1.327925,1.389330,-0.061838,0.007293,-1.784363,-0.239616,-0.769581,-2.484969,2.273544,-2.997300,23.079133,8.898871,23.148497,-0.022330,0.167088,0.000000,0.218810,0.181880,-0.000000
3.140000,0.959893,-0.296958,-1.327891,1.371366,-0.064119,-0.000549,-1.808056,-0.216441,-0.798373,-2.253544,2.360873,-2.758527,23.201275,8.564356,24.586777,-0.020110,0.168815,0.000000,0.225083,0.163333,-0.000000
3.150000,0.973516,-0.297609,-1.327937,1.353177,-0.066164,-0.008666,-1.829430,-0.192410,-0.824706,-2.021030,2.444787,-2.505963,23.297456,8.216559,25.905534,-0.017829,0.170357,0.000000,0.231133,0.145185,0.000000
3.160000,0.986956,-0.298280,-1.328066,1.334785,-0.067964,-0.017035,-1.848480,-0.167567,-0.848434,-1.788233,2.524240,-2.239392,23.386124,7.883560,27.059971,-0.015489,0.171721,0.000000,0.236887,0.127488,-0.000000
3.170000,1.000211,-0.298968,-1.328279,1.316215,-0.069512,-0.025626,-1.865192,-0.141936,-0.869458,-1.554010,2.601380,-1.963566,23.455430,7.543318,28.083037,-0.013092,0.172908,0.000000,0.242572,0.110036,-0.000000
3.180000,1.013280,-0.299669,-1.328579,1.297489,-0.070800,-0.034414,-1.879558,-0.115551,-0.887674,-1.319181,2.675087,-1.678181,23.507797,7.197407,28.971052,-0.010638,0.173923,0.000000,0.248104,0.092880,0.000000
3.190000,1.026161,-0.300383,-1.328968,1.278632,-0.071821,-0.043370,-1.891574,-0.088446,-0.902994,-1.083902,2.745314,-1.384607,23.545651,6.847400,29.720333,-0.008130,0.174767,0.000000,0.253500,0.075984,-0.000000
3.200000,1.038852,-0.301105,-1.329447,1.259666,-0.072567,-0.052464,-1.901235,-0.060656,-0.915343,-0.848308,2.812027,-1.084249,23.571417,6.494871,30.327201,-0.005569,0.175443,0.000000,0.258774,0.059309,-0.000000
3.210000,1.051354,-0.301833,-1.330017,1.240615,-0.073032,-0.061667,-1.908548,-0.032216,-0.924647,-0.613277,2.875287,-0.777262,23.606997,6.139408,30.755434,-0.002955,0.175955,0.000000,0.263950,0.042901,-0.000000
3.220000,1.063664,-0.302565,-1.330680,1.221503,-0.073209,-0.070947,-1.913500,-0.003162,-0.930877,-0.377070,2.934907,-0.468174,23.632954,5.784814,31.037875,-0.000290,0.176302,0.000000,0.269025,0.026500,-0.000000
3.230000,1.075784,-0.303296,-1.331436,1.202353,-0.073093,-0.080274,-1.916089,0.026470,-0.934004,-0.140650,2.990992,-0.156989,23.649328,5.432904,31.174827,0.002425,0.176485,0.000000,0.274021,0.010162,0.000000
3.240000,1.087711,-0.304025,-1.332286,1.183189,-0.072678,-0.089617,-1.916313,0.056646,-0.934014,0.095885,3.043580,0.154839,23.656159,5.085495,31.166594,0.005190,0.176505,0.000000,0.278953,-0.006158,0.000000
3.250000,1.099447,-0.304749,-1.333229,1.164035,-0.071959,-0.098944,-1.914171,0.087330,-0.930909,0.332441,3.092723,0.465860,23.653488,4.744405,31.013479,0.008004,0.176362,0.000000,0.283833,-0.022506,0.000000
3.260000,1.110992,-0.305464,-1.334265,1.144914,-0.070930,-0.108225,-1.909672,0.118486,-0.924691,0.568209,3.138205,0.775861,23.659387,4.418765,30.684611,0.010867,0.176055,0.000000,0.288650,-0.038843,0.000000
3.270000,1.122346,-0.306166,-1.335393,1.125849,-0.069587,-0.117428,-1.902807,0.150084,-0.915406,0.804785,3.180802,1.080475,23.653655,4.102181,30.215284,0.013777,0.175584,0.000000,0.293475,-0.055413,-0.000000
3.280000,1.133509,-0.306854,-1.336613,1.106865,-0.067927,-0.126523,-1.893576,0.182092,-0.903100,1.041237,3.220282,1.379712,23.634124,3.795572,29.609621,0.016736,0.174946,0.000000,0.298290,-0.072164,-0.000000
3.290000,1.144484,-0.307524,-1.337923,1.087986,-0.065944,-0.135481,-1.881983,0.214479,-0.887834,1.277415,3.256750,1.672227,23.598626,3.499860,28.871740,0.019743,0.174140,0.000000,0.303105,-0.089133,0.000000
3.300000,1.155270,-0.308172,-1.339322,1.069234,-0.063636,-0.144270,-1.868030,0.247217,-0.869682,1.513149,3.290319,1.956720,23.544993,3.215964,28.005762,0.022798,0.173163,0.000000,0.307926,-0.106355,-0.000000
3.310000,1.165869,-0.308796,-1.340808,1.050633,-0.060999,-0.152865,-1.851729,0.280268,-0.848718,1.747601,3.320299,2.233081,23.487360,2.965336,26.986710,0.025901,0.172012,0.000000,0.312688,-0.123783,0.000000
3.320000,1.176283,-0.309391,-1.342378,1.032207,-0.058029,-0.161236,-1.833080,0.313615,-0.825056,1.982086,3.348746,2.497365,23.405260,2.725852,25.851366,0.029052,0.170685,0.000000,0.317568,-0.141629,0.000000
3.330000,1.186514,-0.309955,-1.344032,1.013979,-0.054725,-0.169358,-1.812091,0.347235,-0.798810,2.215611,3.374847,2.749746,23.294527,2.495919,24.607413,0.032252,0.169177,0.000000,0.322484,-0.159825,0.000000
3.340000,1.196563,-0.310484,-1.345765,0.995973,-0.051084,-0.177204,-1.788772,0.381104,-0.770104,2.447868,3.398691,2.989177,23.150997,2.273943,23.262534,0.035502,0.167486,0.000000,0.327432,-0.178384,-0.000000
3.350000,1.206434,-0.310976,-1.347575,0.978212,-0.047103,-0.184752,-1.763139,0.415201,-0.739073,2.678508,3.420348,3.214686,22.970506,2.058332,21.824413,0.038801,0.165606,0.000000,0.332406,-0.197312,-0.000000
3.360000,1.216128,-0.311425,-1.349459,0.960718,-0.042779,-0.191979,-1.735207,0.449504,-0.705853,2.907294,3.439903,3.426024,22.745003,1.846745,20.284462,0.042150,0.163535,0.000000,0.337401,-0.216613,-0.000000
3.370000,1.225649,-0.311830,-1.351413,0.943515,-0.038112,-0.198863,-1.705001,0.483992,-0.670605,3.133432,3.457327,3.620849,22.474686,1.638426,18.668627,0.045549,0.161269,0.000000,0.342388,-0.236266,0.000000
3.380000,1.235000,-0.312186,-1.353435,0.926625,-0.033099,-0.205384,-1.672548,0.518644,-0.633491,3.356626,3.472677,3.799176,22.155865,1.431874,16.986587,0.048998,0.158804,0.000000,0.347355,-0.256259,-0.000000
3.390000,1.244183,-0.312491,-1.355519,0.910071,-0.027739,-0.211527,-1.637880,0.553439,-0.594679,3.576375,3.485965,3.960392,21.784851,1.225587,15.248015,0.052496,0.156136,0.000000,0.352281,-0.276564,-0.000000
3.400000,1.253202,-0.312740,-1.357664,0.893875,-0.022030,-0.217273,-1.601034,0.588356,-0.554342,3.792137,3.497185,4.103980,21.357956,1.018062,13.462589,0.056043,0.153264,0.000000,0.357139,-0.297146,0.000000
3.410000,1.262062,-0.312930,-1.359864,0.878058,-0.015971,-0.222609,-1.562046,0.623375,-0.512657,4.003913,3.506287,4.229752,20.856916,0.808552,11.634139,0.059638,0.150183,0.000000,0.361900,-0.318010,-0.000000
3.420000,1.270765,-0.313058,-1.362115,0.862641,-0.009562,-0.227522,-1.520973,0.658475,-0.469808,4.209721,3.513308,4.336835,20.294401,0.594709,9.778901,0.063281,0.146892,0.000000,0.366533,-0.338978,0.000000
3.430000,1.279316,-0.313120,-1.364413,0.847645,-0.002801,-0.232002,-1.477871,0.693634,-0.425982,4.409589,3.518162,4.425275,19.668508,0.374936,7.907269,0.066969,0.143389,0.000000,0.370999,-0.360043,-0.000000
3.440000,1.287719,-0.313113,-1.366753,0.833090,0.004311,-0.236039,-1.432803,0.728831,-0.381365,4.602874,3.520781,4.494960,18.977332,0.147640,6.029633,0.070700,0.139674,0.000000,0.375260,-0.381130,0.000000
3.450000,1.295979,-0.313033,-1.369132,0.818995,0.011775,-0.239627,-1.385838,0.764042,-0.336146,4.788912,3.521084,4.545882,18.218970,-0.088774,4.156386,0.074473,0.135748,0.000000,0.379271,-0.402155,0.000000
3.460000,1.304101,-0.312876,-1.371544,0.805379,0.019592,-0.242761,-1.337041,0.799247,-0.290514,4.967984,3.519202,4.577805,17.367247,-0.341744,2.306306,0.078285,0.131608,0.000000,0.383009,-0.423123,0.000000
3.470000,1.312088,-0.312640,-1.373986,0.792260,0.027760,-0.245437,-1.286508,0.834418,-0.244651,5.137114,3.514471,4.591714,16.447501,-0.606305,0.480370,0.082132,0.127260,0.000000,0.386374,-0.443697,-0.000000
3.480000,1.319947,-0.312320,-1.376451,0.779654,0.036280,-0.247654,-1.234331,0.869527,-0.198740,5.296711,3.507034,4.587524,15.460801,-0.883337,-1.312055,0.086011,0.122706,0.000000,0.389340,-0.463880,0.000000
3.490000,1.327683,-0.311913,-1.378937,0.767578,0.045150,-0.249412,-1.180608,0.904549,-0.152959,5.446110,3.496760,4.565616,14.408214,-1.173719,-3.061605,0.089917,0.117950,0.000000,0.391856,-0.483553,0.000000
3.500000,1.335301,-0.311416,-1.381438,0.756047,0.054370,-0.250714,-1.125445,0.939453,-0.107485,5.584659,3.483512,4.526466,13.290808,-1.478330,-4.758915,0.093846,0.112997,0.000000,0.393871,-0.502596,0.000000
3.510000,1.342806,-0.310825,-1.383950,0.745074,0.063939,-0.251563,-1.068942,0.974212,-0.062495,5.712739,3.467492,4.469786,12.083757,-1.806861,-6.372960,0.097793,0.107855,0.000000,0.395360,-0.520992,-0.000000
3.520000,1.350204,-0.310136,-1.386468,0.734672,0.073854,-0.251966,-1.011231,1.008791,-0.018142,5.827292,3.447719,4.398268,10.817195,-2.150301,-7.918688,0.101751,0.102531,0.000000,0.396206,-0.538345,-0.000000
3.530000,1.357501,-0.309346,-1.388988,0.724853,0.084114,-0.251928,-0.952439,1.043155,0.025420,5.928899,3.424437,4.311662,9.495359,-2.508447,-9.389385,0.105715,0.097035,0.000000,0.396393,-0.554650,-0.000000
3.540000,1.364703,-0.308452,-1.391505,0.715626,0.094716,-0.251460,-0.892698,1.077268,0.068044,6.017029,3.397501,4.210753,8.122488,-2.881100,-10.778341,0.109677,0.091379,0.000000,0.395875,-0.569776,-0.000000
3.550000,1.371816,-0.307451,-1.394015,0.707001,0.105658,-0.250571,-0.832145,1.111092,0.109590,6.091193,3.366767,4.096390,6.702822,-3.268060,-12.078841,0.113630,0.085575,0.000000,0.394608,-0.583595,-0.000000
3.560000,1.378845,-0.306338,-1.396515,0.698985,0.116937,-0.249272,-0.770914,1.144592,0.149917,6.151704,3.332303,3.968274,5.221392,-3.674437,-13.253389,0.117567,0.079635,0.000000,0.392563,-0.596068,-0.000000
3.570000,1.385798,-0.305111,-1.399000,0.691585,0.128549,-0.247577,-0.709161,1.177725,0.188918,6.196358,3.293472,3.830275,3.703995,-4.094069,-14.329826,0.121479,0.073576,0.000000,0.389687,-0.606868,-0.000000
3.580000,1.392679,-0.303766,-1.401465,0.684803,0.140490,-0.245499,-0.647038,1.210448,0.226488,6.225686,3.250381,3.682014,2.157221,-4.526107,-15.305211,0.125358,0.067413,0.000000,0.385963,-0.615983,0.000000
3.590000,1.399496,-0.302300,-1.403908,0.678645,0.152756,-0.243052,-0.584699,1.242718,0.262528,6.239426,3.202911,3.524518,0.587663,-4.969700,-16.176598,0.129195,0.061165,0.000000,0.381369,-0.623313,0.000000
3.600000,1.406254,-0.300710,-1.406325,0.673110,0.165343,-0.240253,-0.522302,1.274491,0.296951,6.237385,3.150951,3.358839,-0.998091,-5.423997,-16.941047,0.132982,0.054849,0.000000,0.375890,-0.628768,0.000000
3.610000,1.412960,-0.298992,-1.408712,0.668198,0.178244,-0.237118,-0.460001,1.305731,0.329666,6.219778,3.095251,3.184716,-2.602172,-5.909701,-17.561604,0.136711,0.048484,0.000000,0.369587,-0.632314,-0.000000
3.620000,1.419620,-0.297144,-1.411066,0.663909,0.191455,-0.233665,-0.397960,1.336380,0.360626,6.185725,3.033698,3.006451,-4.208198,-6.401769,-18.073499,0.140371,0.042090,0.000000,0.362295,-0.633787,-0.000000
3.630000,1.426240,-0.295162,-1.413385,0.660237,0.204969,-0.229912,-0.336340,1.366388,0.389780,6.135633,2.967206,2.823605,-5.808512,-6.896711,-18.477956,0.143953,0.035689,0.000000,0.354102,-0.633191,-0.000000
3.640000,1.432827,-0.293044,-1.415664,0.657180,0.218781,-0.225876,-0.275300,1.395707,0.417087,6.069599,2.895766,2.637246,-7.395455,-7.391038,-18.776194,0.147450,0.029301,0.000000,0.345026,-0.630496,-0.000000
3.650000,1.439386,-0.290786,-1.417901,0.654729,0.232881,-0.221576,-0.215000,1.424287,0.442517,5.987794,2.819399,2.448431,-8.961367,-7.881260,-18.969435,0.150851,0.022948,0.000000,0.335094,-0.625691,-0.000000
3.660000,1.445923,-0.288385,-1.420094,0.652877,0.247264,-0.217032,-0.155600,1.452068,0.466039,5.890086,2.737171,2.257129,-10.488958,-8.338746,-19.031766,0.154148,0.016651,0.000000,0.324220,-0.618742,0.000000
3.670000,1.452445,-0.285839,-1.422241,0.651614,0.261920,-0.212262,-0.097249,1.479015,0.487659,5.777702,2.651529,2.066915,-11.981381,-8.788227,-18.994865,0.157333,0.010431,0.000000,0.312737,-0.609764,0.000000
3.680000,1.458958,-0.283146,-1.424339,0.650928,0.276841,-0.207285,-0.040095,1.505084,0.507380,5.650597,2.561434,1.877547,-13.432157,-9.229289,-18.863278,0.160400,0.004310,0.000000,0.300553,-0.598753,-0.000000
3.690000,1.465466,-0.280302,-1.426386,0.650807,0.292019,-0.202120,0.015715,1.530230,0.525216,5.509219,2.466972,1.689950,-14.834807,-9.661522,-18.641547,0.163342,-0.001693,0.000000,0.287717,-0.585764,-0.000000
3.700000,1.471976,-0.277305,-1.428381,0.651237,0.307443,-0.196787,0.070043,1.554409,0.541188,5.354083,2.368234,1.505001,-16.182853,-10.084514,-18.334217,0.166152,-0.007557,0.000000,0.274281,-0.570867,-0.000000
3.710000,1.478492,-0.274152,-1.430321,0.652203,0.323103,-0.191302,0.122745,1.577585,0.555320,5.185061,2.265769,1.322846,-17.452013,-10.509331,-17.928413,0.168826,-0.013262,0.000000,0.260332,-0.554070,-0.000000
3.720000,1.485021,-0.270842,-1.432206,0.653687,0.338991,-0.185686,0.173703,1.599710,0.567660,5.004466,2.158598,1.145903,-18.655791,-10.922678,-17.448232,0.171357,-0.018792,0.000000,0.245840,-0.535648,-0.000000
3.730000,1.491568,-0.267372,-1.434035,0.655671,0.355094,-0.179955,0.222796,1.620744,0.578255,4.812178,2.047359,0.974107,-19.789886,-11.322741,-16.900349,0.173741,-0.024129,0.000000,0.230899,-0.515624,0.000000
3.740000,1.498136,-0.263739,-1.435805,0.658136,0.371402,-0.174127,0.269910,1.640645,0.587161,4.608915,1.932194,0.808100,-20.850000,-11.707701,-16.291443,0.175974,-0.029257,0.000000,0.215564,-0.494112,0.000000
3.750000,1.504732,-0.259943,-1.437517,0.661062,0.387903,-0.168217,0.314940,1.659375,0.594438,4.395438,1.813262,0.648459,-21.831834,-12.075742,-15.628190,0.178051,-0.034161,0.000000,0.199891,-0.471234,0.000000
3.760000,1.511359,-0.255981,-1.439169,0.664428,0.404585,-0.162243,0.357778,1.676902,0.600152,4.171659,1.691082,0.495575,-22.708511,-12.433639,-14.914241,0.179971,-0.038828,0.000000,0.183967,-0.447023,-0.000000
3.770000,1.518022,-0.251851,-1.440762,0.668210,0.421437,-0.156219,0.398345,1.693185,0.604374,3.940541,1.565045,0.350175,-23.501073,-12.769933,-14.159670,0.181730,-0.043245,0.000000,0.167765,-0.421838,-0.000000
3.780000,1.524725,-0.247551,-1.442294,0.672387,0.438445,-0.150160,0.436563,1.708192,0.607181,3.701923,1.435765,0.212494,-24.207988,-13.081753,-13.371525,0.183326,-0.047402,0.000000,0.151376,-0.395705,0.000000
3.790000,1.531471,-0.243081,-1.443765,0.676934,0.455596,-0.144080,0.472362,1.721890,0.608651,3.456671,1.303501,0.082833,-24.827720,-13.366232,-12.556852,0.184757,-0.051291,0.000000,0.134851,-0.368759,-0.000000
3.800000,1.538264,-0.238439,-1.445175,0.681826,0.472878,-0.137991,0.505678,1.734253,0.608865,3.205665,1.168541,-0.038579,-25.358734,-13.620499,-11.722699,0.186023,-0.054903,0.000000,0.118241,-0.341131,0.000000
3.810000,1.545109,-0.233623,-1.446525,0.687039,0.490277,-0.131907,0.536449,1.745239,0.607912,2.948866,1.029888,-0.151131,-25.775972,-13.808530,-10.887449,0.187120,-0.058230,0.000000,0.101468,-0.312858,0.000000
3.820000,1.552006,-0.228633,-1.447813,0.692546,0.507779,-0.125837,0.564643,1.754845,0.605871,2.689391,0.890996,-0.255799,-26.104304,-13.964673,-10.045426,0.188052,-0.061270,0.000000,0.084881,-0.284298,-0.000000
3.830000,1.558960,-0.223467,-1.449042,0.698323,0.525369,-0.119793,0.590227,1.763054,0.602824,2.427072,0.750697,-0.352036,-26.345078,-14.090119,-9.202291,0.188818,-0.064018,0.000000,0.068377,-0.255464,-0.000000
3.840000,1.565974,-0.218125,-1.450209,0.704342,0.543035,-0.113784,0.613177,1.769855,0.598858,2.162777,0.609292,-0.439860,-26.499638,-14.186060,-8.363702,0.189420,-0.066471,0.000000,0.051992,-0.226475,0.000000
3.850000,1.573048,-0.212606,-1.451317,0.710578,0.560762,-0.107818,0.633479,1.775237,0.594055,1.897362,0.467070,-0.519344,-26.569332,-14.253687,-7.535320,0.189859,-0.068629,0.000000,0.035756,-0.197442,0.000000
3.860000,1.580186,-0.206910,-1.452366,0.717003,0.578535,-0.101905,0.651118,1.779199,0.588506,1.631161,0.324707,-0.589952,-26.542670,-14.304243,-6.739645,0.190136,-0.070492,0.000000,0.019749,-0.168424,0.000000
3.870000,1.587389,-0.201036,-1.453356,0.723591,0.596341,-0.096051,0.666104,1.781730,0.582282,1.366204,0.181525,-0.653450,-26.435405,-14.327638,-5.963433,0.190254,-0.072060,0.000000,0.003863,-0.139636,0.000000
3.880000,1.594658,-0.194983,-1.454287,0.730316,0.614165,-0.090261,0.678447,1.782829,0.575462,1.102712,0.038245,-0.709298,-26.250456,-14.323831,-5.210282,0.190214,-0.073337,0.000000,-0.011821,-0.111117,0.000000
3.890000,1.601995,-0.188752,-1.455161,0.737152,0.631993,-0.084543,0.688166,1.782496,0.568121,0.841445,-0.104861,-0.757745,-25.990740,-14.292783,-4.483791,0.190019,-0.074325,0.000000,-0.027285,-0.082953,-0.000000
3.900000,1.609401,-0.182343,-1.455978,0.744071,0.649810,-0.078901,0.695286,1.780733,0.560331,0.583136,-0.247520,-0.799075,-25.659175,-14.234455,-3.787556,0.189669,-0.075028,0.000000,-0.042514,-0.055224,0.000000
3.910000,1.616877,-0.175756,-1.456739,0.751049,0.667603,-0.073338,0.699838,1.777545,0.552170,0.328200,-0.389751,-0.832868,-25.251339,-14.141427,-3.143887,0.189169,-0.075451,0.000000,-0.057508,-0.027979,-0.000000
3.920000,1.624422,-0.168991,-1.457445,0.758059,0.685356,-0.067858,0.701865,1.772942,0.543695,0.077999,-0.530590,-0.861234,-24.778387,-14.021943,-2.535378,0.188520,-0.075599,0.000000,-0.072220,-0.001346,0.000000
3.930000,1.632038,-0.162049,-1.458097,0.765078,0.703057,-0.062465,0.701414,1.766937,0.534965,-0.167163,-0.670105,-0.883697,-24.244138,-13.876868,-1.963337,0.187725,-0.075480,0.000000,-0.086654,0.024644,0.000000
3.940000,1.639724,-0.154931,-1.458695,0.772080,0.720690,-0.057160,0.698540,1.759545,0.526039,-0.406692,-0.808045,-0.900627,-23.652409,-13.707064,-1.429069,0.186788,-0.075100,0.000000,-0.100802,0.049933,0.000000
3.950000,1.647480,-0.147636,-1.459240,0.779041,0.738243,-0.051945,0.693301,1.750782,0.516970,-0.640033,-0.944167,-0.912409,-23.007015,-13.513396,-0.933881,0.185710,-0.074466,0.000000,-0.114655,0.074472,-0.000000
3.960000,1.655304,-0.140166,-1.459734,0.785938,0.755701,-0.046821,0.685761,1.740667,0.507813,-0.866715,-1.078330,-0.918841,-22.310541,-13.294351,-0.494186,0.184496,-0.073587,0.000000,-0.128203,0.098217,-0.000000
3.970000,1.663198,-0.132522,-1.460177,0.792749,0.773052,-0.041789,0.675991,1.729223,0.498607,-1.086146,-1.210087,-0.921751,-21.568187,-13.053462,-0.094335,0.183147,-0.072471,0.000000,-0.141443,0.121124,0.000000
3.980000,1.671159,-0.124705,-1.460570,0.799451,0.790282,-0.036849,0.664064,1.716474,0.489391,-1.297939,-1.339330,-0.920859,-20.783921,-12.791882,0.266217,0.181668,-0.071127,0.000000,-0.154367,0.143160,-0.000000
3.990000,1.679187,-0.116717,-1.460914,0.806023,0.807377,-0.032001,0.650059,1.702446,0.480201,-1.501697,-1.465859,-0.916556,-19.961710,-12.510768,0.588012,0.180061,-0.069563,0.000000,-0.166968,0.164292,-0.000000
4.000000,1.687279,-0.108558,-1.461210,0.812445,0.824326,-0.027245,0.634058,1.687167,0.471070,-1.697060,-1.589484,-0.909226,-19.105524,-12.211273,0.871594,0.178330,-0.067790,0.000000,-0.179240,0.184492,0.000000
4.010000,1.695435,-0.100231,-1.461460,0.818698,0.841117,-0.022579,0.616148,1.670666,0.462029,-1.883604,-1.710071,-0.898880,-18.221949,-11.893444,1.108189,0.176477,-0.065817,0.000000,-0.191175,0.203724,-0.000000
4.020000,1.703652,-0.091737,-1.461662,0.824762,0.857736,-0.018004,0.596416,1.652976,0.453100,-2.061294,-1.827350,-0.886766,-17.312012,-11.559680,1.308799,0.174507,-0.063655,0.000000,-0.202771,0.221998,-0.000000
4.030000,1.711929,-0.083077,-1.461820,0.830620,0.874172,-0.013517,0.574953,1.634130,0.444300,-2.229769,-1.941216,-0.872819,-16.379361,-11.211274,1.475107,0.172423,-0.061312,0.000000,-0.214021,0.239282,0.000000
4.040000,1.720264,-0.074254,-1.461933,0.836256,0.890415,-0.009117,0.551852,1.614164,0.435648,-2.388818,-2.051531,-0.857373,-15.427640,-10.849515,1.608798,0.170228,-0.058800,0.000000,-0.224918,0.255562,0.000000
4.050000,1.728654,-0.065269,-1.462003,0.841652,0.906452,-0.004803,0.527208,1.593112,0.427157,-2.538270,-2.158166,-0.840746,-14.460498,-10.475696,1.711557,0.167926,-0.056130,0.000000,-0.235457,0.270826,-0.000000
4.060000,1.737096,-0.056125,-1.462029,0.846795,0.922273,-0.000574,0.501121,1.571013,0.418838,-2.677807,-2.261002,-0.823107,-13.486166,-10.091266,1.781727,0.165520,-0.053310,0.000000,-0.245627,0.285045,-0.000000
4.070000,1.745589,-0.046824,-1.462014,0.851670,0.937869,0.003574,0.473685,1.547905,0.410696,-2.807760,-2.359953,-0.805053,-12.503145,-9.697337,1.824743,0.163015,-0.050353,0.000000,-0.255431,0.298261,-0.000000
4.080000,1.754129,-0.037369,-1.461958,0.856264,0.953228,0.007641,0.444999,1.523827,0.402738,-2.927851,-2.454922,-0.786696,-11.514520,-9.295180,1.842696,0.160413,-0.047268,0.000000,-0.264859,0.310448,0.000000
4.090000,1.762713,-0.027761,-1.461862,0.860566,0.968342,0.011629,0.415161,1.498820,0.394963,-3.038042,-2.545833,-0.768275,-10.523376,-8.886068,1.837679,0.157719,-0.044067,0.000000,-0.273904,0.321603,0.000000
4.100000,1.771339,-0.018003,-1.461726,0.864564,0.983202,0.015541,0.384271,1.472924,0.387372,-3.138321,-2.632624,-0.750012,-9.532798,-8.471271,1.811787,0.154936,-0.040759,0.000000,-0.282562,0.331728,-0.000000
4.110000,1.780003,-0.008098,-1.461551,0.868248,0.997798,0.019377,0.352430,1.446182,0.379961,-3.228499,-2.715194,-0.732155,-8.551201,-8.053315,1.768452,0.152069,-0.037356,0.000000,-0.290823,0.340804,0.000000
4.120000,1.788703,0.001952,-1.461339,0.871610,1.012123,0.023141,0.319733,1.418634,0.372727,-3.309127,-2.793623,-0.714759,-7.575689,-7.632064,1.708263,0.149121,-0.033867,0.000000,-0.298691,0.348890,0.000000
4.130000,1.797434,0.012144,-1.461089,0.874641,1.026168,0.026832,0.286280,1.390324,0.365663,-3.380041,-2.867828,-0.698040,-6.608695,-7.208634,1.633148,0.146096,-0.030303,0.000000,-0.306158,0.355968,0.000000
4.140000,1.806195,0.022475,-1.460802,0.877333,1.039927,0.030454,0.252165,1.361292,0.358763,-3.441338,-2.937793,-0.682139,-5.652652,-6.784144,1.545038,0.142999,-0.026674,0.000000,-0.313220,0.362047,-0.000000
4.150000,1.814980,0.032941,-1.460480,0.879682,1.053392,0.034008,0.217484,1.331582,0.352017,-3.493139,-3.003511,-0.667176,-4.709994,-6.359712,1.445861,0.139833,-0.022991,0.000000,-0.319872,0.367139,0.000000
4.160000,1.823787,0.043541,-1.460122,0.881681,1.066556,0.037495,0.182335,1.301237,0.345414,-3.535374,-3.064920,-0.653411,-3.788627,-5.938233,1.341572,0.136603,-0.019263,0.000000,-0.326106,0.371237,-0.000000
4.170000,1.832612,0.054272,-1.459730,0.883327,1.079414,0.040917,0.146807,1.270297,0.338946,-3.568725,-3.122204,-0.640550,-2.884839,-5.518828,1.229581,0.133313,-0.015499,0.000000,-0.331933,0.374409,0.000000
4.180000,1.841452,0.065129,-1.459304,0.884616,1.091960,0.044275,0.110991,1.238806,0.332600,-3.593135,-3.175307,-0.628841,-2.000394,-5.102399,1.111324,0.129966,-0.011711,0.000000,-0.337345,0.376648,-0.000000
4.190000,1.850304,0.076110,-1.458845,0.885546,1.104189,0.047569,0.074974,1.206805,0.326365,-3.608804,-3.224264,-0.618340,-1.137054,-4.689845,0.988237,0.126567,-0.007905,0.000000,-0.342341,0.377973,0.000000
4.200000,1.859162,0.087211,-1.458353,0.886116,1.116095,0.050802,0.038843,1.174335,0.320229,-3.615952,-3.269120,-0.609087,-0.296581,-4.282066,0.861756,0.123120,-0.004093,0.000000,-0.346923,0.378407,0.000000
4.210000,1.868025,0.098431,-1.457829,0.886323,1.127674,0.053974,0.002685,1.141437,0.314177,-3.614611,-3.309847,-0.601299,0.514037,-3.881925,0.738075,0.119630,-0.000283,0.000000,-0.351084,0.377950,-0.000000
4.220000,1.876887,0.109764,-1.457274,0.886169,1.138922,0.057086,-0.033423,1.108151,0.308199,-3.605524,-3.346692,-0.594542,1.298902,-3.488118,0.613290,0.116100,0.003517,0.000000,-0.354841,0.376679,-0.000000
4.230000,1.885747,0.121208,-1.456687,0.885655,1.149836,0.060139,-0.069400,1.074516,0.302282,-3.588722,-3.379633,-0.589034,2.056891,-3.101306,0.488254,0.112535,0.007299,0.000000,-0.358190,0.374597,-0.000000
4.240000,1.894599,0.132759,-1.456071,0.884782,1.160411,0.063132,-0.105172,1.040571,0.296414,-3.564479,-3.408743,-0.584775,2.786881,-2.722149,0.363820,0.108938,0.011054,0.000000,-0.361136,0.371731,-0.000000
4.250000,1.903441,0.144415,-1.455425,0.883553,1.170646,0.066067,-0.140666,1.006354,0.290582,-3.533082,-3.434103,-0.581753,3.487750,-2.351305,0.240841,0.105313,0.014776,0.000000,-0.363682,0.368110,-0.000000
4.260000,1.912269,0.156171,-1.454750,0.881970,1.180538,0.068944,-0.175809,0.971902,0.284773,-3.494634,-3.455721,-0.580110,4.153553,-1.991425,0.124194,0.101665,0.018455,0.000000,-0.365829,0.363745,-0.000000
4.270000,1.921080,0.168025,-1.454046,0.880038,1.190084,0.071762,-0.210537,0.937251,0.278976,-3.449898,-3.473874,-0.579440,4.788579,-1.640935,0.010216,0.097998,0.022086,0.000000,-0.367599,0.358717,0.000000
4.280000,1.929869,0.179972,-1.453315,0.877761,1.199282,0.074523,-0.244786,0.902436,0.273180,-3.398967,-3.488572,-0.579895,5.392295,-1.300252,-0.100732,0.094315,0.025662,0.000000,-0.368991,0.353034,-0.000000
4.290000,1.938634,0.192009,-1.452556,0.875144,1.208132,0.077226,-0.278497,0.867491,0.267374,-3.342158,-3.499913,-0.581443,5.964170,-0.969790,-0.208290,0.090619,0.029176,0.000000,-0.370015,0.346731,0.000000
4.300000,1.947371,0.204133,-1.451770,0.872193,1.216632,0.079871,-0.311611,0.832449,0.261548,-3.279792,-3.508003,-0.584049,6.503669,-0.649966,-0.312096,0.086916,0.032623,0.000000,-0.370680,0.339842,-0.000000
4.310000,1.956076,0.216341,-1.450959,0.868914,1.224781,0.082457,-0.344073,0.797342,0.255689,-3.212025,-3.512875,-0.587771,7.005988,-0.343089,-0.409273,0.083207,0.035997,0.000000,-0.370988,0.332384,0.000000
4.320000,1.964748,0.228628,-1.450122,0.865314,1.232578,0.084984,-0.375835,0.762201,0.249789,-3.139591,-3.514818,-0.592333,7.475389,-0.047451,-0.502287,0.079497,0.039292,0.000000,-0.370968,0.324435,0.000000
4.330000,1.973382,0.240991,-1.449259,0.861400,1.240025,0.087453,-0.406850,0.727056,0.243839,-3.062627,-3.513862,-0.597803,7.911866,0.236764,-0.591083,0.075789,0.042504,0.000000,-0.370622,0.316011,0.000000
4.340000,1.981975,0.253427,-1.448373,0.857179,1.247120,0.089861,-0.437074,0.691933,0.237830,-2.981463,-3.510121,-0.604140,8.315407,0.509372,-0.675611,0.072086,0.045629,0.000000,-0.369963,0.307148,0.000000
4.350000,1.990524,0.265932,-1.447462,0.852661,1.253864,0.092209,-0.466466,0.656862,0.231754,-2.896429,-3.503714,-0.611301,8.686004,0.770188,-0.755818,0.068391,0.048662,0.000000,-0.369002,0.297882,-0.000000
4.360000,1.999027,0.278503,-1.446529,0.847853,1.260257,0.094496,-0.494989,0.621868,0.225601,-2.807711,-3.494690,-0.619278,9.020069,1.017328,-0.830739,0.064707,0.051599,0.000000,-0.367747,0.288234,0.000000
4.370000,2.007480,0.291136,-1.445573,0.842764,1.266301,0.096721,-0.522610,0.586976,0.219366,-2.715976,-3.483331,-0.627942,9.321609,1.252516,-0.901346,0.061037,0.054438,0.000000,-0.366225,0.278276,0.000000
4.380000,2.015881,0.303828,-1.444594,0.837404,1.271997,0.098883,-0.549299,0.552209,0.213040,-2.621386,-3.469680,-0.637291,9.591054,1.475775,-0.967698,0.057383,0.057174,0.000000,-0.364443,0.268025,0.000000
4.390000,2.024228,0.316575,-1.443595,0.831781,1.277346,0.100981,-0.575029,0.517590,0.206618,-2.524261,-3.453855,-0.647282,9.828832,1.687129,-1.029854,0.053748,0.059806,0.000000,-0.362415,0.257518,0.000000
4.400000,2.032516,0.329374,-1.442575,0.825906,1.282349,0.103015,-0.599777,0.483139,0.200093,-2.424914,-3.435977,-0.657874,10.035374,1.886602,-1.087874,0.050135,0.062331,0.000000,-0.360153,0.246789,-0.000000
4.410000,2.040745,0.342221,-1.441535,0.819789,1.287009,0.104983,-0.623520,0.448878,0.193459,-2.323547,-3.416106,-0.669014,10.208347,2.072781,-1.142119,0.046546,0.064748,0.000000,-0.357666,0.235861,-0.000000
4.420000,2.048911,0.355113,-1.440476,0.813439,1.291328,0.106884,-0.646242,0.414823,0.186711,-2.220724,-3.394496,-0.680689,10.351279,2.247303,-1.192308,0.042983,0.067053,0.000000,-0.354980,0.224793,0.000000
4.430000,2.057013,0.368046,-1.439398,0.806868,1.295307,0.108716,-0.667930,0.380993,0.179843,-2.116619,-3.371198,-0.692846,10.464937,2.410366,-1.238466,0.039447,0.069247,0.000000,-0.352104,0.213606,0.000000
4.440000,2.065048,0.381018,-1.438302,0.800084,1.298948,0.110480,-0.688571,0.347404,0.172852,-2.011520,-3.346326,-0.705445,10.550087,2.562172,-1.280613,0.035941,0.071329,0.000000,-0.349050,0.202331,0.000000
4.450000,2.073014,0.394024,-1.437188,0.793100,1.302255,0.112173,-0.708158,0.314072,0.165733,-1.905709,-3.319991,-0.718445,10.607498,2.702918,-1.318773,0.032467,0.073296,0.000000,-0.345831,0.190999,-0.000000
4.460000,2.080909,0.407062,-1.436058,0.785925,1.305231,0.113794,-0.726683,0.281009,0.158482,-1.799386,-3.292260,-0.731773,10.636060,2.831688,-1.353846,0.029025,0.075150,0.000000,-0.342456,0.179632,-0.000000
4.470000,2.088732,0.420128,-1.434913,0.778570,1.307877,0.115342,-0.744145,0.248230,0.151096,-1.692991,-3.263343,-0.745470,10.638646,2.949935,-1.384869,0.025618,0.076891,0.000000,-0.338948,0.168277,-0.000000
4.480000,2.096480,0.433218,-1.433752,0.771045,1.310196,0.116816,-0.760544,0.215746,0.143572,-1.586696,-3.233295,-0.759456,10.616252,3.057996,-1.411755,0.022247,0.078517,0.000000,-0.335313,0.156953,-0.000000
4.490000,2.104152,0.446330,-1.432577,0.763362,1.312193,0.118213,-0.775880,0.183568,0.135907,-1.480746,-3.202216,-0.773691,10.569874,3.156208,-1.434421,0.018912,0.080031,0.000000,-0.331565,0.145686,-0.000000
4.500000,2.111747,0.459461,-1.431388,0.755531,1.313869,0.119533,-0.790160,0.151705,0.128098,-1.375375,-3.170202,-0.788130,10.500508,3.244907,-1.452780,0.015616,0.081432,0.000000,-0.327714,0.134501,0.000000
4.510000,2.119262,0.472607,-1.430186,0.747562,1.315228,0.120775,-0.803390,0.120167,0.120144,-1.270770,-3.137318,-0.802699,10.408159,3.323675,-1.467561,0.012358,0.082721,0.000000,-0.323767,0.123418,0.000000
4.520000,2.126698,0.485764,-1.428972,0.739467,1.316273,0.121936,-0.815579,0.088961,0.112043,-1.167237,-3.103724,-0.817430,10.294938,3.393695,-1.477765,0.009141,0.083901,0.000000,-0.319743,0.112470,0.000000
4.530000,2.134051,0.498931,-1.427748,0.731254,1.317008,0.123015,-0.826739,0.058095,0.103795,-1.064937,-3.069472,-0.832239,10.161961,3.455397,-1.483208,0.005964,0.084971,0.000000,-0.315649,0.101674,0.000000
4.540000,2.141322,0.512104,-1.426512,0.722935,1.317436,0.124011,-0.836883,0.027574,0.095398,-0.964060,-3.034643,-0.847078,10.010347,3.509209,-1.483703,0.002828,0.085935,0.000000,-0.311493,0.091050,-0.000000
4.550000,2.148510,0.525279,-1.425268,0.714520,1.317561,0.124923,-0.846026,-0.002596,0.086853,-0.864788,-2.999313,-0.861896,9.841214,3.555560,-1.479067,-0.000266,0.086793,0.000000,-0.307285,0.080618,0.000000
4.560000,2.155612,0.538454,-1.424014,0.706018,1.317385,0.125748,-0.854184,-0.032411,0.078161,-0.767284,-2.963541,-0.876630,9.655518,3.594531,-1.469390,-0.003318,0.087548,0.000000,-0.303031,0.070394,0.000000
4.570000,2.162630,0.551626,-1.422753,0.697440,1.316914,0.126485,-0.861378,-0.061866,0.069321,-0.671722,-2.927429,-0.891253,9.454558,3.626941,-1.454177,-0.006327,0.088202,0.000000,-0.298744,0.060396,0.000000
4.580000,2.169561,0.564791,-1.421485,0.688794,1.316149,0.127134,-0.867626,-0.090958,0.060336,-0.578240,-2.891023,-0.905695,9.239471,3.653263,-1.433210,-0.009292,0.088757,0.000000,-0.294428,0.050639,-0.000000
4.590000,2.176405,0.577948,-1.420211,0.680090,1.315096,0.127691,-0.872950,-0.119686,0.051208,-0.486976,-2.854382,-0.919897,9.011396,3.673968,-1.406270,-0.012215,0.089215,0.000000,-0.290090,0.041137,0.000000
4.600000,2.183163,0.591092,-1.418931,0.671338,1.313757,0.128157,-0.877373,-0.148046,0.041939,-0.398052,-2.817560,-0.933799,8.771470,3.689528,-1.373139,-0.015094,0.089580,0.000000,-0.285738,0.031903,-0.000000
4.610000,2.189832,0.604222,-1.417648,0.662546,1.312136,0.128530,-0.880919,-0.176036,0.032533,-0.311602,-2.780609,-0.947357,8.521351,3.700474,-1.333122,-0.017930,0.089854,0.000000,-0.281377,0.022950,0.000000
4.620000,2.196413,0.617334,-1.416361,0.653722,1.310237,0.128808,-0.883614,-0.203657,0.022994,-0.227680,-2.743568,-0.960461,8.261592,3.707211,-1.286534,-0.020722,0.090040,0.000000,-0.277012,0.014284,-0.000000
4.630000,2.202906,0.630426,-1.415072,0.644876,1.308064,0.128989,-0.885482,-0.230908,0.013326,-0.146399,-2.706478,-0.973066,7.993267,3.710203,-1.233215,-0.023470,0.090141,0.000000,-0.272649,0.005916,0.000000
4.640000,2.209311,0.643494,-1.413782,0.636015,1.305620,0.129074,-0.886551,-0.257787,0.003534,-0.067840,-2.669374,-0.985102,7.717452,3.709915,-1.173004,-0.026175,0.090160,0.000000,-0.268291,-0.002145,0.000000
4.650000,2.215627,0.656537,-1.412491,0.627148,1.302910,0.129060,-0.886848,-0.284295,-0.006374,0.007929,-2.632289,-0.996502,7.435219,3.706812,-1.105741,-0.028836,0.090099,0.000000,-0.263943,-0.009894,0.000000
4.660000,2.221854,0.669552,-1.411201,0.618281,1.299936,0.128946,-0.886402,-0.310433,-0.016394,0.080804,-2.595264,-1.007240,7.148721,3.701813,-1.030083,-0.031454,0.089963,0.000000,-0.259611,-0.017320,0.000000
4.670000,2.227992,0.682535,-1.409912,0.609422,1.296702,0.128731,-0.885241,-0.336201,-0.026517,0.150840,-2.558279,-1.017132,6.857821,3.694872,-0.947196,-0.034028,0.089754,0.000000,-0.255292,-0.024428,0.000000
4.680000,2.234042,0.695485,-1.408626,0.600578,1.293213,0.128415,-0.883395,-0.361599,-0.036734,0.217949,-2.521372,-1.026160,6.563462,3.686397,-0.857064,-0.036560,0.089475,0.000000,-0.250992,-0.031211,0.000000
4.690000,2.240004,0.708398,-1.407344,0.591756,1.289471,0.127996,-0.880892,-0.386628,-0.047037,0.282101,-2.484555,-1.034250,6.266587,3.676797,-0.759671,-0.039048,0.089130,0.000000,-0.246714,-0.037666,0.000000
4.700000,2.245878,0.721273,-1.406067,0.582962,1.285482,0.127474,-0.877763,-0.411290,-0.057415,0.343276,-2.447838,-1.041329,5.968136,3.666479,-0.655002,-0.041494,0.088722,0.000000,-0.242460,-0.043792,0.000000
4.710000,2.251663,0.734107,-1.404795,0.574203,1.281247,0.126848,-0.874037,-0.435586,-0.067860,0.401403,-2.411258,-1.047390,5.670539,3.656651,-0.541399,-0.043897,0.088255,0.000000,-0.238233,-0.049583,0.000000
4.720000,2.257362,0.746897,-1.403530,0.565484,1.276771,0.126117,-0.869745,-0.459516,-0.078359,0.456620,-2.374741,-1.052207,5.373068,3.646824,-0.420687,-0.046259,0.087731,0.000000,-0.234029,-0.055052,-0.000000
4.730000,2.262973,0.759642,-1.402273,0.556810,1.272058,0.125281,-0.864915,-0.483081,-0.088900,0.508867,-2.338321,-1.055781,5.076486,3.637312,-0.293054,-0.048578,0.087154,0.000000,-0.229851,-0.060194,0.000000
4.740000,2.268498,0.772338,-1.401025,0.548187,1.267111,0.124339,-0.859577,-0.506283,-0.099471,0.558156,-2.301992,-1.058045,4.781550,3.628425,-0.158684,-0.050856,0.086526,0.000000,-0.225701,-0.065013,-0.000000
4.750000,2.273937,0.784983,-1.399787,0.539620,1.261933,0.123291,-0.853762,-0.529121,-0.110057,0.604506,-2.265749,-1.058933,4.489022,3.620473,-0.017762,-0.053092,0.085853,0.000000,-0.221579,-0.069511,0.000000
4.760000,2.279291,0.797576,-1.398560,0.531113,1.256529,0.122138,-0.847498,-0.551598,-0.120645,0.647880,-2.229619,-1.058448,4.201339,3.614773,0.131274,-0.055287,0.085135,0.000000,-0.217489,-0.073686,0.000000
4.770000,2.284560,0.810113,-1.397344,0.522671,1.250903,0.120878,-0.840813,-0.573714,-0.131220,0.688470,-2.193493,-1.056365,3.917378,3.610507,0.286278,-0.057442,0.084378,0.000000,-0.213423,-0.077558,-0.000000
4.780000,2.289744,0.822593,-1.396142,0.514298,1.245056,0.119513,-0.833738,-0.595468,-0.141767,0.726242,-2.157403,-1.052704,3.637694,3.607864,0.446850,-0.059556,0.083583,0.000000,-0.209383,-0.081124,-0.000000
4.790000,2.294846,0.835014,-1.394954,0.505998,1.238994,0.118043,-0.826298,-0.616862,-0.152269,0.761240,-2.121330,-1.047411,3.362842,3.607033,0.612592,-0.061630,0.082753,0.000000,-0.205371,-0.084391,-0.000000
4.800000,2.299865,0.847372,-1.393782,0.497774,1.232720,0.116468,-0.818522,-0.637895,-0.162710,0.793517,-2.085256,-1.040437,3.093377,3.608200,0.783104,-0.063664,0.081893,0.000000,-0.201384,-0.087365,0.000000
4.810000,2.304802,0.859667,-1.392625,0.489628,1.226238,0.114789,-0.810437,-0.658567,-0.173073,0.823060,-2.049201,-1.031794,2.831560,3.612610,0.959481,-0.065658,0.081003,0.000000,-0.197427,-0.090047,-0.000000
4.820000,2.309657,0.871896,-1.391486,0.481566,1.219550,0.113007,-0.802069,-0.678879,-0.183340,0.850093,-2.013043,-1.021301,2.576029,3.619267,1.139647,-0.067612,0.080089,0.000000,-0.193489,-0.092460,0.000000
4.830000,2.314433,0.884058,-1.390366,0.473588,1.212661,0.111123,-0.793444,-0.698828,-0.193493,0.874603,-1.976808,-1.008990,2.327132,3.628228,1.323021,-0.069527,0.079151,0.000000,-0.189573,-0.094604,-0.000000
4.840000,2.319129,0.896149,-1.389264,0.465698,1.205575,0.109138,-0.784585,-0.718414,-0.203513,0.896659,-1.940471,-0.994832,2.085213,3.639553,1.509020,-0.071404,0.078193,0.000000,-0.185679,-0.096489,0.000000
4.850000,2.323747,0.908168,-1.388183,0.457897,1.198294,0.107053,-0.775518,-0.737637,-0.213383,0.916332,-1.904008,-0.978803,1.850619,3.653301,1.697062,-0.073241,0.077217,0.000000,-0.181805,-0.098122,-0.000000
4.860000,2.328288,0.920114,-1.387124,0.450188,1.190823,0.104871,-0.766267,-0.756494,-0.223084,0.933635,-1.867433,-0.960923,1.625260,3.670456,1.887515,-0.075040,0.076226,0.000000,-0.177954,-0.099507,0.000000
4.870000,2.332751,0.931984,-1.386086,0.442572,1.183166,0.102592,-0.756853,-0.774985,-0.232595,0.948793,-1.830633,-0.941092,1.407725,3.690038,2.078732,-0.076800,0.075222,0.000000,-0.174115,-0.100668,0.000000
4.880000,2.337139,0.943777,-1.385072,0.435051,1.175325,0.100219,-0.747298,-0.793106,-0.241899,0.961816,-1.793624,-0.919348,1.198169,3.711993,2.270013,-0.078522,0.074207,0.000000,-0.170291,-0.101607,0.000000
4.890000,2.341453,0.955490,-1.384082,0.427627,1.167305,0.097755,-0.737624,-0.810857,-0.250976,0.972784,-1.756385,-0.895694,0.996747,3.736266,2.460660,-0.080206,0.073184,0.000000,-0.166480,-0.102334,0.000000
4.900000,2.345692,0.967122,-1.383117,0.420299,1.159109,0.095201,-0.727849,-0.828233,-0.259807,0.981778,-1.718892,-0.870140,0.803611,3.762804,2.649976,-0.081852,0.072155,0.000000,-0.162682,-0.102858,-0.000000
4.910000,2.349859,0.978672,-1.382178,0.413070,1.150741,0.092559,-0.717995,-0.845234,-0.268372,0.988833,-1.681147,-0.842711,0.620207,3.792192,2.837492,-0.083460,0.071121,0.000000,-0.158896,-0.103185,0.000000
4.920000,2.353954,0.990137,-1.381266,0.405939,1.142206,0.089834,-0.708079,-0.861855,-0.276655,0.994153,-1.643069,-0.813409,0.445241,3.823657,3.022252,-0.085030,0.070085,0.000000,-0.155116,-0.103336,0.000000
4.930000,2.357978,1.001515,-1.380382,0.398908,1.133506,0.087027,-0.698118,-0.878094,-0.284634,0.997766,-1.604667,-0.782277,0.278709,3.857067,3.203528,-0.086562,0.069047,0.000000,-0.151341,-0.103316,-0.000000
4.940000,2.361933,1.012806,-1.379526,0.391977,1.124645,0.084142,-0.688129,-0.893947,-0.292294,0.999755,-1.565922,-0.749353,0.120606,3.892288,3.380596,-0.088057,0.068011,0.000000,-0.147572,-0.103134,-0.000000
4.950000,2.365818,1.024008,-1.378699,0.385146,1.115628,0.081183,-0.678128,-0.909411,-0.299616,1.000206,-1.526816,-0.714682,-0.029072,3.929188,3.552728,-0.089514,0.066977,0.000000,-0.143805,-0.102800,-0.000000
4.960000,2.369636,1.035118,-1.377903,0.378415,1.106458,0.078151,-0.668130,-0.924483,-0.306582,0.999165,-1.487343,-0.678296,-0.169389,3.967895,3.718661,-0.090933,0.065947,0.000000,-0.140041,-0.102320,-0.000000
4.970000,2.373387,1.046136,-1.377137,0.371783,1.097140,0.075052,-0.658149,-0.939157,-0.313176,0.996804,-1.447465,-0.640306,-0.301404,4.007984,3.878272,-0.092314,0.064923,0.000000,-0.136275,-0.101713,0.000000
4.980000,2.377072,1.057061,-1.376402,0.365252,1.087676,0.071889,-0.648198,-0.953431,-0.319383,0.993164,-1.407180,-0.600754,-0.425234,4.049288,4.030898,-0.093658,0.063905,0.000000,-0.132507,-0.100983,0.000000
4.990000,2.380692,1.067889,-1.375699,0.358819,1.078072,0.068666,-0.638290,-0.967299,-0.325186,0.988326,-1.366476,-0.559713,-0.541000,4.091644,4.175880,-0.094964,0.062895,0.000000,-0.128734,-0.100140,0.000000
5.000000,2.384249,1.078622,-1.375029,0.352486,1.068332,0.065387,-0.628435,-0.980759,-0.330572,0.982370,-1.325344,-0.517264,-0.648819,4.134887,4.312556,-0.096233,0.061893,0.000000,-0.124955,-0.099193,-0.000000
5.010000,2.387742,1.089256,-1.374391,0.346250,1.058458,0.062056,-0.618646,-0.993805,-0.335527,0.975353,-1.283771,-0.473443,-0.748243,4.178726,4.439032,-0.097464,0.060902,0.000000,-0.121168,-0.098147,-0.000000
5.020000,2.391174,1.099790,-1.373788,0.340112,1.048457,0.058678,-0.608931,-1.006433,-0.340037,0.967406,-1.241762,-0.428460,-0.840029,4.223137,4.556031,-0.098656,0.059921,0.000000,-0.117372,-0.097018,0.000000
5.030000,2.394545,1.110224,-1.373218,0.334071,1.038331,0.055257,-0.599301,-1.018638,-0.344092,0.958578,-1.199307,-0.382356,-0.924364,4.267972,4.663044,-0.099811,0.058952,0.000000,-0.113565,-0.095811,-0.000000
5.040000,2.397856,1.120557,-1.372683,0.328126,1.028086,0.051797,-0.589762,-1.030417,-0.347681,0.948943,-1.156401,-0.335234,-1.001437,4.313079,4.759561,-0.100928,0.057996,0.000000,-0.109745,-0.094534,0.000000
5.050000,2.401108,1.130786,-1.372182,0.322276,1.017724,0.048305,-0.580324,-1.041765,-0.350794,0.938572,-1.113045,-0.287201,-1.071437,4.358311,4.845073,-0.102006,0.057052,0.000000,-0.105910,-0.093194,-0.000000
5.060000,2.404301,1.140911,-1.371717,0.316519,1.007252,0.044783,-0.570993,-1.052676,-0.353421,0.927527,-1.069219,-0.238300,-1.134310,4.403096,4.917293,-0.103046,0.056122,0.000000,-0.102057,-0.091798,-0.000000
5.070000,2.407438,1.150930,-1.371287,0.310856,0.996672,0.041238,-0.561776,-1.063148,-0.355558,0.915898,-1.024964,-0.188815,-1.190516,4.447759,4.977706,-0.104047,0.055207,0.000000,-0.098188,-0.090356,-0.000000
5.080000,2.410519,1.160844,-1.370892,0.305283,0.985990,0.037674,-0.552677,-1.073174,-0.357196,0.903738,-0.980264,-0.138787,-1.240273,4.492199,5.026018,-0.105009,0.054305,0.000000,-0.094298,-0.088873,0.000000
5.090000,2.413544,1.170650,-1.370533,0.299802,0.975210,0.034096,-0.543703,-1.082751,-0.358332,0.891113,-0.935121,-0.088336,-1.283800,4.536321,5.061938,-0.105933,0.053419,0.000000,-0.090387,-0.087357,-0.000000
5.100000,2.416515,1.180348,-1.370210,0.294409,0.964337,0.030509,-0.534856,-1.091875,-0.358962,0.878082,-0.889539,-0.037590,-1.321314,4.580025,5.085173,-0.106817,0.052549,0.000000,-0.086452,-0.085813,-0.000000
5.110000,2.419433,1.189936,-1.369923,0.289104,0.953374,0.026918,-0.526142,-1.100541,-0.359082,0.864706,-0.843501,0.013407,-1.353029,4.622671,5.093329,-0.107662,0.051693,0.000000,-0.082490,-0.084247,0.000000
5.120000,2.422298,1.199415,-1.369672,0.283886,0.942328,0.023329,-0.517563,-1.108744,-0.358694,0.851040,-0.797063,0.064327,-1.379167,4.664771,5.088473,-0.108467,0.050854,0.000000,-0.078502,-0.082666,0.000000
5.130000,2.425111,1.208783,-1.369456,0.278752,0.931201,0.019746,-0.509122,-1.116480,-0.357796,0.837140,-0.750208,0.115133,-1.399949,4.706292,5.070569,-0.109232,0.050030,0.000000,-0.074484,-0.081075,0.000000
5.140000,2.427873,1.218039,-1.369277,0.273703,0.919999,0.016174,-0.500821,-1.123747,-0.356392,0.823058,-0.702940,0.165695,-1.415594,4.747204,5.039583,-0.109956,0.049223,0.000000,-0.070435,-0.079479,0.000000
5.150000,2.430585,1.227182,-1.369133,0.268735,0.908728,0.012620,-0.492661,-1.130538,-0.354483,0.808845,-0.655266,0.215881,-1.426319,4.787474,4.995480,-0.110640,0.048431,0.000000,-0.066353,-0.077883,-0.000000
5.160000,2.433248,1.236213,-1.369024,0.263849,0.897390,0.009086,-0.484644,-1.136850,-0.352075,0.794552,-0.607175,0.265647,-1.432464,4.826625,4.936044,-0.111283,0.047655,0.000000,-0.062234,-0.076292,0.000000
5.170000,2.435862,1.245130,-1.368951,0.259042,0.885992,0.005580,-0.476770,-1.142680,-0.349173,0.780216,-0.558715,0.314656,-1.434114,4.865127,4.863688,-0.111885,0.046896,0.000000,-0.058079,-0.074710,0.000000
5.180000,2.438429,1.253933,-1.368913,0.254313,0.874538,0.002105,-0.469040,-1.148023,-0.345784,0.765884,-0.509874,0.362878,-1.431472,4.903003,4.778644,-0.112445,0.046152,0.000000,-0.053883,-0.073142,-0.000000
5.190000,2.440949,1.262621,-1.368909,0.249661,0.863033,-0.001334,-0.461453,-1.152876,-0.341918,0.751600,-0.460657,0.410187,-1.424742,4.940276,4.681143,-0.112962,0.045423,0.000000,-0.049646,-0.071591,0.000000
5.200000,2.443422,1.271193,-1.368939,0.245084,0.851482,-0.004732,-0.454008,-1.157235,-0.337584,0.737402,-0.411071,0.456460,-1.414129,4.976971,4.571419,-0.113437,0.044711,0.000000,-0.045364,-0.070061,0.000000
5.210000,2.445851,1.279650,-1.369003,0.240580,0.839890,-0.008084,-0.446704,-1.161096,-0.332792,0.723335,-0.361114,0.501655,-1.399979,5.012969,4.447700,-0.113869,0.044013,0.000000,-0.041036,-0.068556,0.000000
5.220000,2.448234,1.287991,-1.369101,0.236149,0.828262,-0.011387,-0.439540,-1.164456,-0.327555,0.709421,-0.310807,0.545465,-1.382336,5.048453,4.312465,-0.114258,0.043330,0.000000,-0.036658,-0.067079,0.000000
5.230000,2.450574,1.296215,-1.369231,0.231789,0.816603,-0.014634,-0.432515,-1.167311,-0.321887,0.695700,-0.260147,0.587868,-1.361388,5.083462,4.166194,-0.114602,0.042663,0.000000,-0.032229,-0.065634,-0.000000
5.240000,2.452870,1.304323,-1.369393,0.227498,0.804918,-0.017823,-0.425626,-1.169658,-0.315803,0.682204,-0.209139,0.628754,-1.337320,5.118037,4.009362,-0.114902,0.042009,0.000000,-0.027746,-0.064222,0.000000
5.250000,2.455124,1.312313,-1.369587,0.223276,0.793211,-0.020949,-0.418870,-1.171493,-0.309318,0.668963,-0.157787,0.668021,-1.310319,5.152219,3.842448,-0.115157,0.041369,0.000000,-0.023208,-0.062848,0.000000
5.260000,2.457336,1.320187,-1.369812,0.219120,0.781490,-0.024008,-0.412245,-1.172813,-0.302448,0.656010,-0.106108,0.705634,-1.280658,5.186374,3.664345,-0.115366,0.040744,0.000000,-0.018613,-0.061512,0.000000
5.270000,2.459507,1.327943,-1.370067,0.215031,0.769757,-0.026997,-0.405749,-1.173614,-0.295211,0.643362,-0.054075,0.741349,-1.248427,5.220177,3.477308,-0.115529,0.040131,0.000000,-0.013955,-0.060219,0.000000
5.280000,2.461637,1.335582,-1.370352,0.211005,0.758019,-0.029911,-0.399377,-1.173893,-0.287627,0.631049,-0.001706,0.775152,-1.213802,5.253629,3.282007,-0.115645,0.039531,0.000000,-0.009234,-0.058969,-0.000000
5.290000,2.463727,1.343104,-1.370665,0.207043,0.746281,-0.032748,-0.393127,-1.173647,-0.279715,0.619094,0.050996,0.806964,-1.176960,5.286731,3.079116,-0.115714,0.038943,0.000000,-0.004449,-0.057765,-0.000000
5.300000,2.465778,1.350508,-1.371006,0.203142,0.734548,-0.035504,-0.386994,-1.172872,-0.271495,0.607517,0.104027,0.836712,-1.138076,5.319483,2.869303,-0.115734,0.038368,0.000000,0.000403,-0.056609,-0.000000
5.310000,2.467790,1.357795,-1.371375,0.199302,0.722825,-0.038177,-0.380975,-1.171566,-0.262987,0.596338,0.157351,0.864367,-1.097321,5.352734,2.652278,-0.115705,0.037803,0.000000,0.005319,-0.055503,-0.000000
5.320000,2.469764,1.364964,-1.371770,0.195522,0.711118,-0.040763,-0.375066,-1.169724,-0.254214,0.585576,0.211043,0.889782,-1.054878,5.385532,2.429793,-0.115627,0.037250,0.000000,0.010310,-0.054447,0.000000
5.330000,2.471701,1.372017,-1.372190,0.191801,0.699432,-0.043260,-0.369262,-1.167344,-0.245199,0.575246,0.265060,0.912948,-1.010922,5.417776,2.202638,-0.115499,0.036707,0.000000,0.015373,-0.053443,-0.000000
5.340000,2.473600,1.378953,-1.372634,0.188137,0.687773,-0.045666,-0.363559,-1.164422,-0.235963,0.565362,0.319396,0.933822,-0.965631,5.449362,1.971600,-0.115320,0.036174,0.000000,0.020509,-0.052493,-0.000000
5.350000,2.475464,1.385773,-1.373103,0.184529,0.676146,-0.047979,-0.357953,-1.160955,-0.226530,0.555937,0.374044,0.952369,-0.919182,5.480186,1.737470,-0.115089,0.035650,0.000000,0.025718,-0.051597,0.000000
5.360000,2.477291,1.392476,-1.373594,0.180977,0.664556,-0.050196,-0.352439,-1.156941,-0.216924,0.546978,0.428945,0.968572,-0.871665,5.511455,1.500824,-0.114805,0.035135,0.000000,0.030995,-0.050756,0.000000
5.370000,2.479083,1.399064,-1.374106,0.177480,0.653009,-0.052317,-0.347012,-1.152375,-0.207167,0.538502,0.484211,0.982390,-0.823353,5.541597,1.262689,-0.114468,0.034628,0.000000,0.036353,-0.049971,-0.000000
5.380000,2.480841,1.405536,-1.374640,0.174037,0.641510,-0.054339,-0.341667,-1.147255,-0.197284,0.530513,0.539772,0.993823,-0.774433,5.570347,1.023882,-0.114078,0.034129,0.000000,0.041786,-0.049242,0.000000
5.390000,2.482564,1.411894,-1.375193,0.170647,0.630066,-0.056262,-0.336400,-1.141579,-0.187298,0.523015,0.595613,1.002868,-0.725093,5.597443,0.785216,-0.113632,0.033636,0.000000,0.047292,-0.048570,-0.000000
5.400000,2.484254,1.418138,-1.375765,0.167309,0.618681,-0.058085,-0.331205,-1.135342,-0.177234,0.516012,0.651715,1.009531,-0.675520,5.622620,0.547508,-0.113132,0.033151,0.000000,0.052870,-0.047953,-0.000000
5.410000,2.485911,1.424268,-1.376354,0.164022,0.607361,-0.059807,-0.326078,-1.128544,-0.167116,0.509500,0.707994,1.013802,-0.625775,5.647215,0.312142,-0.112575,0.032671,0.000000,0.058512,-0.047393,0.000000
5.420000,2.487535,1.430285,-1.376960,0.160787,0.596112,-0.061427,-0.321014,-1.121182,-0.156966,0.503490,0.764579,1.015757,-0.576187,5.669169,0.079293,-0.111961,0.032197,0.000000,0.064231,-0.046889,-0.000000
5.430000,2.489127,1.436191,-1.377582,0.157602,0.584939,-0.062946,-0.316007,-1.113252,-0.146808,0.497975,0.821367,1.015399,-0.526958,5.688022,-0.150292,-0.111290,0.031727,0.000000,0.070015,-0.046441,-0.000000
5.440000,2.490687,1.441984,-1.378219,0.154466,0.573848,-0.064364,-0.311053,-1.104754,-0.136666,0.492949,0.878327,1.012764,-0.478291,5.703315,-0.375870,-0.110561,0.031262,0.000000,0.075861,-0.046047,0.000000
5.450000,2.492216,1.447668,-1.378869,0.151381,0.562846,-0.065680,-0.306146,-1.095685,-0.126561,0.488407,0.935420,1.007897,-0.430387,5.714588,-0.596693,-0.109773,0.030800,0.000000,0.081766,-0.045707,-0.000000
5.460000,2.493715,1.453242,-1.379532,0.148343,0.551937,-0.066895,-0.301283,-1.086046,-0.116516,0.484334,0.992539,1.000798,-0.383346,5.723023,-0.810749,-0.108925,0.030342,0.000000,0.087716,-0.045419,0.000000
5.470000,2.495183,1.458707,-1.380207,0.145355,0.541127,-0.068010,-0.296458,-1.075834,-0.106552,0.480731,1.049790,0.991646,-0.337487,5.726317,-1.018717,-0.108018,0.029886,0.000000,0.093722,-0.045183,-0.000000
5.480000,2.496622,1.464065,-1.380892,0.142414,0.530422,-0.069026,-0.291667,-1.065050,-0.096689,0.477580,1.107046,0.980446,-0.293024,5.723811,-1.220005,-0.107051,0.029433,0.000000,0.099768,-0.044996,0.000000
5.490000,2.498032,1.469316,-1.381587,0.139521,0.519828,-0.069944,-0.286905,-1.053693,-0.086949,0.474865,1.164245,0.967270,-0.250173,5.714844,-1.414024,-0.106023,0.028981,0.000000,0.105848,-0.044857,0.000000
5.500000,2.499412,1.474461,-1.382291,0.136676,0.509350,-0.070766,-0.282168,-1.041765,-0.077350,0.472570,1.221319,0.952192,-0.209150,5.698754,-1.600183,-0.104934,0.028531,0.000000,0.111953,-0.044763,0.000000
5.510000,2.500765,1.479503,-1.383002,0.133878,0.498994,-0.071492,-0.277452,-1.029268,-0.067912,0.470675,1.278138,0.935224,-0.170147,5.676303,-1.776122,-0.103784,0.028081,0.000000,0.118069,-0.044713,0.000000
5.520000,2.502090,1.484442,-1.383720,0.131127,0.488766,-0.072125,-0.272753,-1.016203,-0.058652,0.469159,1.334753,0.916620,-0.133404,5.645235,-1.943239,-0.102572,0.027631,0.000000,0.124196,-0.044703,0.000000
5.530000,2.503388,1.489279,-1.384444,0.128423,0.478672,-0.072666,-0.268068,-1.002574,-0.049585,0.467998,1.391011,0.896390,-0.099139,5.604715,-2.101160,-0.101300,0.027182,0.000000,0.130318,-0.044731,0.000000
5.540000,2.504659,1.494016,-1.385173,0.125765,0.468717,-0.073117,-0.263392,-0.988385,-0.040729,0.467167,1.446813,0.874629,-0.067569,5.553909,-2.249512,-0.099966,0.026732,0.000000,0.136423,-0.044794,-0.000000
5.550000,2.505903,1.498654,-1.385906,0.123155,0.458906,-0.073481,-0.258724,-0.973640,-0.032097,0.466637,1.502052,0.851433,-0.038913,5.491981,-2.387922,-0.098571,0.026281,0.000000,0.142496,-0.044888,-0.000000
5.560000,2.507122,1.503194,-1.386643,0.120591,0.449246,-0.073760,-0.254059,-0.958346,-0.023705,0.466341,1.556577,0.826832,-0.012442,5.418999,-2.514169,-0.097116,0.025830,0.000000,0.148522,-0.045007,-0.000000
5.570000,2.508315,1.507639,-1.387381,0.118074,0.439741,-0.073956,-0.249396,-0.942511,-0.015565,0.466335,1.610349,0.801102,0.010564,5.333117,-2.629953,-0.095601,0.025377,0.000000,0.154492,-0.045156,-0.000000
5.580000,2.509484,1.511990,-1.388121,0.115603,0.430397,-0.074072,-0.244732,-0.926142,-0.007687,0.466540,1.663193,0.774268,0.029773,5.233389,-2.735128,-0.094027,0.024922,0.000000,0.160385,-0.045325,-0.000000
5.590000,2.510628,1.516248,-1.388862,0.113179,0.421220,-0.074110,-0.240065,-0.909251,-0.000083,0.466916,1.714967,0.746435,0.044851,5.118870,-2.829547,-0.092394,0.024466,0.000000,0.166184,-0.045511,-0.000000
5.600000,2.511747,1.520415,-1.389603,0.110802,0.412214,-0.074074,-0.235393,-0.891847,0.007239,0.467422,1.765518,0.717713,0.055464,4.988617,-2.913062,-0.090703,0.024008,0.000000,0.171871,-0.045709,-0.000000
5.610000,2.512844,1.524492,-1.390344,0.108471,0.403385,-0.073967,-0.230714,-0.873945,0.014268,0.468212,1.814655,0.688107,0.056157,4.842424,-2.982888,-0.088957,0.023548,0.000000,0.177424,-0.045935,0.000000
5.620000,2.513917,1.528483,-1.391083,0.106187,0.394737,-0.073790,-0.226029,-0.855559,0.020999,0.468759,1.862275,0.657974,0.052347,4.678515,-3.041839,-0.087155,0.023086,0.000000,0.182828,-0.046134,0.000000
5.630000,2.514968,1.532388,-1.391819,0.103951,0.386275,-0.073548,-0.221339,-0.836706,0.027425,0.469245,1.908163,0.627306,0.044326,4.495855,-3.090092,-0.085301,0.022622,0.000000,0.188059,-0.046324,-0.000000
5.640000,2.515996,1.536209,-1.392553,0.101761,0.378004,-0.073243,-0.216644,-0.817402,0.033543,0.469632,1.952126,0.596207,0.032390,4.293408,-3.127823,-0.083395,0.022156,0.000000,0.193094,-0.046501,0.000000
5.650000,2.517003,1.539949,-1.393284,0.099618,0.369929,-0.072878,-0.211946,-0.797670,0.039348,0.469881,1.993961,0.564784,0.016832,4.070137,-3.155206,-0.081440,0.021689,0.000000,0.197909,-0.046660,-0.000000
5.660000,2.517989,1.543608,-1.394011,0.097522,0.362052,-0.072457,-0.207250,-0.777531,0.044838,0.469656,2.033482,0.533128,0.005565,3.824337,-3.172191,-0.079437,0.021220,0.000000,0.202483,-0.046767,-0.000000
5.670000,2.518954,1.547190,-1.394733,0.095473,0.354379,-0.071982,-0.202554,-0.757009,0.050011,0.469639,2.070402,0.501363,-0.009670,3.555725,-3.179210,-0.077391,0.020751,0.000000,0.206783,-0.046892,-0.000000
5.680000,2.519898,1.550697,-1.395450,0.093471,0.346913,-0.071457,-0.197858,-0.736132,0.054865,0.469447,2.104518,0.469576,-0.029510,3.263347,-3.176465,-0.075303,0.020280,0.000000,0.210786,-0.046994,0.000000
5.690000,2.520823,1.554129,-1.396162,0.091516,0.339658,-0.070886,-0.193166,-0.714929,0.059402,0.469031,2.135587,0.437865,-0.054594,2.946250,-3.164161,-0.073176,0.019808,0.000000,0.214465,-0.047068,-0.000000
5.700000,2.521729,1.557490,-1.396868,0.089607,0.332616,-0.070271,-0.188479,-0.693431,0.063623,0.468336,2.163357,0.406324,-0.085561,2.603480,-3.142501,-0.071015,0.019336,0.000000,0.217791,-0.047109,0.000000
5.710000,2.522615,1.560782,-1.397567,0.087746,0.325790,-0.069614,-0.183797,-0.671674,0.067529,0.467536,2.187567,0.374978,-0.129045,2.234096,-3.109974,-0.068822,0.018863,0.000000,0.220736,-0.047135,0.000000
