time,x,y,z,vx,vy,vz,ax,ay,az,jx,jy,jz,sx,sy,sz
0.000000,-2.374797,-1.453827,1.401179,0.008929,-0.016324,0.021649,-0.086049,0.329862,-0.049819,-0.929021,-8.795324,0.103389,152.362421,198.641411,17.023678
0.010000,-2.374712,-1.453975,1.401393,0.008047,-0.013433,0.021159,-0.088037,0.251400,-0.047965,0.500230,-6.940242,0.264290,133.730360,172.771145,15.165235
0.020000,-2.374635,-1.454098,1.401602,0.007213,-0.011238,0.020695,-0.076641,0.190234,-0.044594,1.750332,-5.332161,0.406870,116.522249,149.222878,13.359598
0.030000,-2.374567,-1.454202,1.401807,0.006553,-0.009578,0.020271,-0.053581,0.144009,-0.039887,2.835219,-3.948410,0.531663,100.677339,127.887053,11.608237
0.040000,-2.374503,-1.454291,1.402008,0.006175,-0.008315,0.019901,-0.020443,0.110590,-0.034019,3.768220,-2.767411,0.639220,86.134878,108.654113,9.912619
0.050000,-2.374442,-1.454369,1.402206,0.006173,-0.007330,0.019594,0.021319,0.088053,-0.027158,4.562056,-1.768683,0.730106,72.834119,91.414502,8.274215
0.060000,-2.374378,-1.454438,1.402400,0.006626,-0.006524,0.019360,0.070375,0.074674,-0.019470,5.228839,-0.932841,0.804900,60.714312,76.058663,6.694493
0.070000,-2.374308,-1.454500,1.402593,0.007601,-0.005811,0.019207,0.125511,0.068915,-0.011112,5.780076,-0.241596,0.864197,49.714706,62.477039,5.174923
0.080000,-2.374225,-1.454554,1.402785,0.009153,-0.005124,0.019140,0.185628,0.069417,-0.002236,6.226665,0.322248,0.908604,39.774554,50.560073,3.716975
0.090000,-2.374123,-1.454602,1.402976,0.011327,-0.004406,0.019164,0.249730,0.074989,0.007012,6.578896,0.774789,0.938746,30.833105,40.198209,2.322116
0.100000,-2.373996,-1.454642,1.403168,0.014158,-0.003611,0.019281,0.316923,0.084592,0.016494,6.846454,1.131031,0.955262,22.829610,31.281890,0.991818
0.110000,-2.373837,-1.454674,1.403362,0.017673,-0.002704,0.019494,0.386407,0.097335,0.026074,7.038413,1.404880,0.958803,15.703320,23.701559,-0.272453
0.120000,-2.373640,-1.454696,1.403558,0.021891,-0.001657,0.019802,0.457468,0.112458,0.035629,7.163242,1.609150,0.950038,9.393485,17.347659,-1.469225
0.130000,-2.373397,-1.454706,1.403758,0.026825,-0.000449,0.020206,0.529474,0.129325,0.045036,7.228801,1.755557,0.929648,3.839356,12.110634,-2.597030
0.140000,-2.373101,-1.454704,1.403963,0.032482,0.000934,0.020702,0.601871,0.147412,0.054185,7.242345,1.854721,0.898332,-1.019816,7.880927,-3.654399
0.150000,-2.372745,-1.454687,1.404173,0.038862,0.002502,0.021288,0.674170,0.166294,0.062969,7.210519,1.916168,0.856800,-5.244782,4.548981,-4.639862
0.160000,-2.372321,-1.454654,1.404389,0.045963,0.004261,0.021960,0.745950,0.185638,0.071290,7.139361,1.948328,0.805779,-8.896291,2.005240,-5.551950
0.170000,-2.371823,-1.454601,1.404612,0.053778,0.006215,0.022712,0.816844,0.205187,0.079055,7.034302,1.958535,0.746010,-12.035091,0.140146,-6.389194
0.180000,-2.371244,-1.454529,1.404843,0.062296,0.008365,0.023539,0.886539,0.224756,0.086183,6.900166,1.953027,0.678250,-14.721932,-1.155856,-7.150125
0.190000,-2.370575,-1.454433,1.405083,0.071504,0.010710,0.024434,0.954765,0.244213,0.092596,6.741168,1.936949,0.603267,-17.017564,-1.992325,-7.833274
0.200000,-2.369811,-1.454314,1.405332,0.081386,0.013249,0.025388,1.021292,0.263473,0.098227,6.560916,1.914348,0.521848,-18.982737,-2.478816,-8.437171
0.210000,-2.368945,-1.454168,1.405591,0.091920,0.015972,0.026395,1.086071,0.282757,0.103012,6.376065,1.912952,0.434560,-21.023055,-3.350708,-8.954456
0.220000,-2.367971,-1.453994,1.405860,0.103096,0.018894,0.027446,1.148749,0.301707,0.106902,6.156688,1.875963,0.342768,-22.812185,-4.015105,-9.390274
0.230000,-2.366881,-1.453789,1.406140,0.114887,0.022004,0.028530,1.209149,0.320257,0.109854,5.920597,1.833232,0.247028,-24.368648,-4.504932,-9.743874
0.240000,-2.365671,-1.453553,1.406431,0.127271,0.025298,0.029640,1.267113,0.338358,0.111832,5.670028,1.786337,0.148167,-25.710968,-4.853114,-10.014509
0.250000,-2.364334,-1.453283,1.406733,0.140221,0.028770,0.030764,1.322508,0.355974,0.112810,5.407030,1.736532,0.047017,-26.857665,-5.092578,-10.201431
0.260000,-2.362865,-1.452977,1.407046,0.153711,0.032413,0.031893,1.375254,0.373165,0.112759,5.136742,1.692418,-0.056399,-27.910018,-5.450237,-10.283212
0.270000,-2.361258,-1.452634,1.407371,0.167715,0.036229,0.033016,1.425210,0.389812,0.111681,4.853086,1.636409,-0.159295,-28.793660,-5.741274,-10.282316
0.280000,-2.359509,-1.452252,1.407707,0.182205,0.040208,0.034123,1.472289,0.405885,0.109575,4.561403,1.577784,-0.261776,-29.516980,-5.974862,-10.200528
0.290000,-2.357612,-1.451829,1.408053,0.197151,0.044344,0.035204,1.516417,0.421360,0.106449,4.263253,1.517073,-0.363042,-30.088367,-6.160171,-10.039632
0.300000,-2.355564,-1.451364,1.408411,0.212524,0.048633,0.036248,1.557537,0.436221,0.102320,3.960114,1.454711,-0.462311,-30.516210,-6.306374,-9.801412
0.310000,-2.353361,-1.450856,1.408778,0.228292,0.053066,0.037247,1.595615,0.450474,0.097202,3.654119,1.393249,-0.559722,-30.827568,-6.478295,-9.464831
0.320000,-2.350997,-1.450303,1.409155,0.244425,0.057639,0.038190,1.630612,0.464080,0.091138,3.344827,1.327722,-0.652390,-31.009874,-6.622639,-9.057289
0.330000,-2.348471,-1.449703,1.409542,0.260894,0.062346,0.039067,1.662508,0.477024,0.084169,3.034331,1.260880,-0.740646,-31.069229,-6.741763,-8.583366
0.340000,-2.345778,-1.449055,1.409936,0.277665,0.067178,0.039870,1.691298,0.489294,0.076342,2.723831,1.192963,-0.823851,-31.011737,-6.838024,-8.047641
0.350000,-2.342917,-1.448359,1.410339,0.294709,0.072129,0.040591,1.716988,0.500881,0.067711,2.414466,1.124188,-0.901408,-30.843500,-6.913780,-7.454692
0.360000,-2.339883,-1.447612,1.410748,0.311995,0.077193,0.041222,1.739597,0.511782,0.058328,2.107505,1.055300,-0.973362,-30.575548,-6.985338,-6.794138
0.370000,-2.336676,-1.446815,1.411163,0.329491,0.082362,0.041756,1.759149,0.521985,0.048267,1.803505,0.985162,-1.037805,-30.208453,-7.039396,-6.087351
0.380000,-2.333293,-1.445965,1.411583,0.347168,0.087630,0.042185,1.775681,0.531484,0.037597,1.503648,0.914568,-1.094976,-29.747715,-7.076604,-5.340741
0.390000,-2.329732,-1.445062,1.412006,0.364995,0.092990,0.042506,1.789239,0.540275,0.026393,1.208845,0.843684,-1.144508,-29.198831,-7.097611,-4.560719
0.400000,-2.325993,-1.444105,1.412432,0.382943,0.098433,0.042712,1.799877,0.548357,0.014733,0.919947,0.772668,-1.186100,-28.567303,-7.103066,-3.753697
0.410000,-2.322073,-1.443093,1.412860,0.400983,0.103954,0.042799,1.807661,0.555729,0.002697,0.637820,0.701763,-1.219605,-27.860255,-7.095897,-2.923773
0.420000,-2.317973,-1.442025,1.413288,0.419087,0.109545,0.042765,1.812659,0.562393,-0.009631,0.363054,0.630900,-1.244633,-27.081361,-7.074195,-2.079954
0.430000,-2.313691,-1.440902,1.413715,0.437227,0.115200,0.042606,1.814949,0.568348,-0.022167,0.096415,0.560326,-1.261180,-26.235921,-7.038330,-1.228933
0.440000,-2.309228,-1.439721,1.414140,0.455377,0.120910,0.042321,1.814616,0.573600,-0.034827,-0.161460,0.490180,-1.269210,-25.329235,-6.988670,-0.377404
0.450000,-2.304584,-1.438483,1.414561,0.473511,0.126669,0.041909,1.811751,0.578154,-0.047523,-0.409983,0.420597,-1.268749,-24.366602,-6.925586,0.467940
0.460000,-2.299758,-1.437188,1.414977,0.491604,0.132471,0.041370,1.806450,0.582014,-0.060169,-0.648593,0.351686,-1.259494,-23.354074,-6.848795,1.290310
0.470000,-2.294752,-1.435834,1.415388,0.509632,0.138307,0.040706,1.798814,0.585190,-0.072686,-0.876880,0.283634,-1.242553,-22.296108,-6.759399,2.094343
0.480000,-2.289566,-1.434421,1.415791,0.527573,0.144172,0.039917,1.788948,0.587690,-0.084994,-1.094381,0.216538,-1.217686,-21.197911,-6.657849,2.874580
0.490000,-2.284201,-1.432950,1.416186,0.545404,0.150059,0.039007,1.776963,0.589525,-0.097014,-1.300721,0.150516,-1.185159,-20.064692,-6.544593,3.625564
0.500000,-2.278658,-1.431420,1.416571,0.563105,0.155961,0.037978,1.762972,0.590705,-0.108673,-1.495576,0.085684,-1.145291,-18.901657,-6.420081,4.341836
0.510000,-2.272939,-1.429831,1.416945,0.580657,0.161871,0.036835,1.747092,0.591242,-0.119889,-1.678601,0.022109,-1.097718,-17.715819,-6.283700,4.999279
0.520000,-2.267046,-1.428183,1.417307,0.598041,0.167784,0.035582,1.729440,0.591151,-0.130606,-1.849746,-0.040004,-1.044617,-16.510361,-6.137093,5.613380
0.530000,-2.260979,-1.426475,1.417656,0.615240,0.173692,0.034225,1.710137,0.590447,-0.140762,-2.008760,-0.100601,-0.985605,-15.290270,-5.980840,6.180964
0.540000,-2.254742,-1.424709,1.417991,0.632239,0.179590,0.032769,1.689305,0.589145,-0.150300,-2.155520,-0.159590,-0.921163,-14.060533,-5.815521,6.698859
0.550000,-2.248335,-1.422884,1.418311,0.649022,0.185473,0.031221,1.667068,0.587261,-0.159168,-2.289955,-0.216883,-0.851804,-12.826138,-5.641715,7.163891
0.560000,-2.241762,-1.421000,1.418616,0.665576,0.191334,0.029588,1.643550,0.584813,-0.167312,-2.411860,-0.272422,-0.777215,-11.596697,-5.459405,7.551226
0.570000,-2.235024,-1.419057,1.418903,0.681889,0.197167,0.027877,1.618872,0.581819,-0.174701,-2.521698,-0.326074,-0.700001,-10.372006,-5.269843,7.882004
0.580000,-2.228125,-1.417056,1.419173,0.697950,0.202968,0.026096,1.593156,0.578298,-0.181302,-2.619331,-0.377797,-0.619765,-9.156485,-5.073680,8.155704
0.590000,-2.221066,-1.414998,1.419425,0.713749,0.208732,0.024254,1.566525,0.574269,-0.187088,-2.704873,-0.427528,-0.537079,-7.954555,-4.871571,8.371805
0.600000,-2.213851,-1.412882,1.419658,0.729278,0.214452,0.022357,1.539099,0.569754,-0.192037,-2.778482,-0.475210,-0.452522,-6.770636,-4.664168,8.529786
0.610000,-2.206482,-1.410709,1.419872,0.744528,0.220125,0.020415,1.510998,0.564772,-0.196126,-2.840040,-0.520787,-0.365919,-5.617248,-4.452351,8.609928
0.620000,-2.198961,-1.408480,1.420066,0.759495,0.225746,0.018437,1.482336,0.559345,-0.199354,-2.890552,-0.564234,-0.279656,-4.489722,-4.236519,8.633260
0.630000,-2.191293,-1.406194,1.420240,0.774174,0.231311,0.016431,1.453224,0.553495,-0.201719,-2.929932,-0.605506,-0.193437,-3.391486,-4.017298,8.601609
0.640000,-2.183479,-1.403854,1.420394,0.788559,0.236815,0.014406,1.423773,0.547243,-0.203225,-2.958491,-0.644571,-0.107801,-2.325971,-3.795314,8.516806
0.650000,-2.175522,-1.401458,1.420528,0.802648,0.242254,0.012370,1.394089,0.540611,-0.203879,-2.976572,-0.681405,-0.023272,-1.296604,-3.571191,8.380680
0.660000,-2.167427,-1.399009,1.420642,0.816440,0.247626,0.010331,1.364280,0.533623,-0.203690,-2.984130,-0.715947,0.060154,-0.317530,-3.346625,8.182278
0.670000,-2.159195,-1.396506,1.420735,0.829934,0.252926,0.008298,1.334439,0.526300,-0.202683,-2.982583,-0.748286,0.140791,0.619849,-3.121041,7.937779
0.680000,-2.150829,-1.393950,1.420808,0.843129,0.258151,0.006280,1.304659,0.518664,-0.200883,-2.971879,-0.778366,0.218767,1.513415,-2.894934,7.650575
0.690000,-2.142333,-1.391343,1.420861,0.856027,0.263298,0.004283,1.275030,0.510740,-0.198318,-2.952468,-0.806185,0.293671,2.361051,-2.668798,7.324064
0.700000,-2.133710,-1.388685,1.420894,0.868630,0.268365,0.002316,1.245637,0.502548,-0.195021,-2.924819,-0.831744,0.365128,3.160640,-2.443127,6.961638
0.710000,-2.124961,-1.385976,1.420907,0.880941,0.273348,0.000385,1.216564,0.494113,-0.191026,-2.888971,-0.854987,0.432981,3.898660,-2.220023,6.562009
0.720000,-2.116092,-1.383218,1.420901,0.892963,0.278246,-0.001502,1.187881,0.485456,-0.186375,-2.846506,-0.876077,0.496483,4.585794,-1.998177,6.133829
0.730000,-2.107103,-1.380411,1.420877,0.904700,0.283057,-0.003340,1.159656,0.476599,-0.181111,-2.797427,-0.894956,0.555576,5.221322,-1.777888,5.681068
0.740000,-2.097999,-1.377557,1.420835,0.916158,0.287777,-0.005123,1.131953,0.467564,-0.175279,-2.742254,-0.911641,0.610035,5.804523,-1.559453,5.207693
0.750000,-2.088781,-1.374656,1.420775,0.927341,0.292407,-0.006844,1.104830,0.458373,-0.168926,-2.681513,-0.926152,0.659674,6.334676,-1.343172,4.717674
0.760000,-2.079453,-1.371709,1.420698,0.938256,0.296944,-0.008500,1.078344,0.449049,-0.162103,-2.615342,-0.938444,0.704234,6.801017,-1.131070,4.217828
0.770000,-2.070017,-1.368718,1.420605,0.948910,0.301388,-0.010085,1.052538,0.439611,-0.154859,-2.545222,-0.948705,0.743873,7.214099,-0.921505,3.708927
0.780000,-2.060475,-1.365682,1.420497,0.959309,0.305736,-0.011596,1.027452,0.430082,-0.147243,-2.471236,-0.956883,0.778394,7.574430,-0.714564,3.194588
0.790000,-2.050831,-1.362603,1.420374,0.969462,0.309989,-0.013029,1.003124,0.420481,-0.139308,-2.393908,-0.963005,0.807759,7.882520,-0.510335,2.678434
0.800000,-2.041087,-1.359483,1.420236,0.979375,0.314146,-0.014381,0.979584,0.410828,-0.131105,-2.313758,-0.967099,0.831969,8.138878,-0.308903,2.164082
0.810000,-2.031245,-1.356321,1.420086,0.989056,0.318206,-0.015650,0.956860,0.401146,-0.122689,-2.231014,-0.969139,0.850735,8.336770,-0.111722,1.663322
0.820000,-2.021307,-1.353119,1.419924,0.998514,0.322169,-0.016834,0.934969,0.391452,-0.114107,-2.146865,-0.969282,0.864897,8.484836,0.082655,1.170604
0.830000,-2.011275,-1.349878,1.419750,1.007758,0.326035,-0.017932,0.913927,0.381767,-0.105407,-2.061479,-0.967495,0.874183,8.584470,0.274310,0.688549
0.840000,-2.001152,-1.346598,1.419565,1.016796,0.329804,-0.018942,0.893742,0.372109,-0.096639,-1.975333,-0.963804,0.878713,8.637068,0.463324,0.219776
0.850000,-1.990940,-1.343282,1.419371,1.025636,0.333477,-0.019864,0.874421,0.362497,-0.087849,-1.888890,-0.958237,0.878632,8.644027,0.649776,-0.233095
0.860000,-1.980640,-1.339929,1.419168,1.034287,0.337054,-0.020699,0.855966,0.352950,-0.079086,-1.802441,-0.950792,0.873695,8.602744,0.833113,-0.656908
0.870000,-1.970255,-1.336541,1.418958,1.042758,0.340536,-0.021446,0.838370,0.343487,-0.070388,-1.716798,-0.941554,0.865089,8.519102,1.014128,-1.060869
0.880000,-1.959785,-1.333119,1.418740,1.051057,0.343924,-0.022107,0.821626,0.334125,-0.061797,-1.632194,-0.930516,0.852548,8.394987,1.192981,-1.443650
0.890000,-1.949234,-1.329663,1.418516,1.059193,0.347219,-0.022683,0.805721,0.324883,-0.053350,-1.549026,-0.917701,0.836291,8.232283,1.369831,-1.803921
0.900000,-1.938602,-1.326175,1.418286,1.067175,0.350422,-0.023175,0.790640,0.315777,-0.045083,-1.467671,-0.903126,0.816549,8.032877,1.544836,-2.140353
0.910000,-1.927891,-1.322655,1.418053,1.075009,0.353535,-0.023585,0.776361,0.306826,-0.037034,-1.388435,-0.886816,0.793168,7.797403,1.718320,-2.441511
0.920000,-1.917102,-1.319104,1.417815,1.082704,0.356560,-0.023916,0.762862,0.298047,-0.029229,-1.311776,-0.868772,0.767352,7.529151,1.890257,-2.717408
0.930000,-1.906237,-1.315524,1.417574,1.090269,0.359497,-0.024170,0.750116,0.289456,-0.021696,-1.237955,-0.849016,0.738904,7.230157,2.060785,-2.967951
0.940000,-1.895297,-1.311915,1.417332,1.097709,0.362349,-0.024351,0.738093,0.281072,-0.014459,-1.167269,-0.827561,0.708078,6.902461,2.230042,-3.193049
0.950000,-1.884284,-1.308277,1.417088,1.105033,0.365119,-0.024461,0.726759,0.272911,-0.007541,-1.099995,-0.804419,0.675129,6.548102,2.398167,-3.392609
0.960000,-1.873197,-1.304612,1.416843,1.112246,0.367808,-0.024503,0.716080,0.264989,-0.000966,-1.036410,-0.779636,0.640010,6.169662,2.566188,-3.558931
0.970000,-1.862039,-1.300921,1.416598,1.119356,0.370420,-0.024481,0.706018,0.257324,0.005254,-0.976701,-0.753138,0.603693,5.768569,2.733245,-3.700462
0.980000,-1.850810,-1.297204,1.416353,1.126369,0.372956,-0.024399,0.696533,0.249932,0.011104,-0.921108,-0.724974,0.566081,5.346793,2.899366,-3.818041
0.990000,-1.839512,-1.293462,1.416110,1.133289,0.375419,-0.024260,0.687582,0.242830,0.016572,-0.869828,-0.695154,0.527409,4.906306,3.064581,-3.912508
1.000000,-1.828145,-1.289696,1.415868,1.140122,0.377813,-0.024069,0.679121,0.236034,0.021649,-0.823038,-0.663685,0.487905,4.449080,3.228920,-3.984703
1.010000,-1.816710,-1.285906,1.415629,1.146873,0.380141,-0.023828,0.671105,0.229561,0.026326,-0.780949,-0.630633,0.447625,3.978444,3.393788,-4.031388
1.020000,-1.805208,-1.282094,1.415392,1.153545,0.382406,-0.023543,0.663486,0.223427,0.030600,-0.743573,-0.595874,0.407162,3.494845,3.557670,-4.057978
1.030000,-1.793639,-1.278258,1.415158,1.160144,0.384611,-0.023218,0.656217,0.217649,0.034469,-0.711089,-0.559483,0.366528,3.000088,3.720425,-4.065811
1.040000,-1.782005,-1.274401,1.414928,1.166671,0.386760,-0.022855,0.649248,0.212243,0.037931,-0.683602,-0.521470,0.325904,2.495978,3.881914,-4.056227
1.050000,-1.770306,-1.270523,1.414701,1.173129,0.388857,-0.022461,0.642528,0.207225,0.040988,-0.661195,-0.481849,0.285457,1.984321,4.041998,-4.030563
1.060000,-1.758543,-1.266625,1.414479,1.179522,0.390906,-0.022037,0.636006,0.202610,0.043641,-0.643994,-0.440698,0.245321,1.468416,4.202109,-3.989643
1.070000,-1.746716,-1.262705,1.414260,1.185850,0.392911,-0.021589,0.629631,0.198416,0.045896,-0.631907,-0.397884,0.205686,0.948391,4.360342,-3.935384
1.080000,-1.734826,-1.258766,1.414047,1.192115,0.394876,-0.021120,0.623351,0.194658,0.047757,-0.625035,-0.353498,0.166654,0.425866,4.516368,-3.869188
1.090000,-1.722874,-1.254808,1.413838,1.198317,0.396805,-0.020635,0.617113,0.191351,0.049231,-0.623393,-0.307565,0.128337,-0.097535,4.669853,-3.792455
1.100000,-1.710860,-1.250830,1.413634,1.204457,0.398704,-0.020137,0.610865,0.188512,0.050326,-0.626983,-0.260111,0.090835,-0.620193,4.820466,-3.706588
1.110000,-1.698785,-1.246834,1.413435,1.210534,0.400577,-0.019630,0.604555,0.186153,0.051052,-0.635842,-0.211223,0.054322,-1.139131,4.969326,-3.615282
1.120000,-1.686649,-1.242819,1.413242,1.216548,0.402429,-0.019117,0.598131,0.184292,0.051416,-0.649813,-0.160801,0.018654,-1.654246,5.114473,-3.517363
1.130000,-1.674454,-1.238785,1.413053,1.222496,0.404265,-0.018603,0.591542,0.182942,0.051428,-0.668910,-0.108948,-0.016007,-2.164083,5.255397,-3.413954
1.140000,-1.662199,-1.234734,1.412870,1.228378,0.406090,-0.018090,0.584736,0.182118,0.051099,-0.693072,-0.055709,-0.049611,-2.667184,5.391589,-3.306175
1.150000,-1.649887,-1.230664,1.412691,1.234190,0.407909,-0.017582,0.577664,0.181832,0.050440,-0.722226,-0.001134,-0.082120,-3.162094,5.522539,-3.195146
1.160000,-1.637516,-1.226576,1.412518,1.239930,0.409728,-0.017082,0.570275,0.182099,0.049462,-0.756331,0.054681,-0.113354,-3.646120,5.648783,-3.085856
1.170000,-1.625088,-1.222469,1.412350,1.245595,0.411553,-0.016594,0.562521,0.182930,0.048176,-0.795167,0.111774,-0.143659,-4.119193,5.768638,-2.975085
1.180000,-1.612604,-1.218344,1.412186,1.251179,0.413389,-0.016120,0.554356,0.184338,0.046593,-0.838674,0.170031,-0.172853,-4.580009,5.881467,-2.863480
1.190000,-1.600065,-1.214201,1.412027,1.256680,0.415241,-0.015663,0.545733,0.186334,0.044723,-0.886722,0.229378,-0.200928,-5.027263,5.986634,-2.751690
1.200000,-1.587471,-1.210040,1.411873,1.262092,0.417117,-0.015226,0.536607,0.188929,0.042578,-0.939170,0.289736,-0.227888,-5.459651,6.083500,-2.640361
1.210000,-1.574823,-1.205859,1.411722,1.267411,0.419022,-0.014812,0.526935,0.192132,0.040171,-0.995915,0.351001,-0.253577,-5.874515,6.171862,-2.534244
1.220000,-1.562123,-1.201659,1.411576,1.272629,0.420962,-0.014424,0.516675,0.195952,0.037510,-1.056663,0.413121,-0.278394,-6.272068,6.250595,-2.429382
1.230000,-1.549371,-1.197439,1.411434,1.277742,0.422943,-0.014063,0.505788,0.200397,0.034606,-1.121295,0.475978,-0.302169,-6.651171,6.319010,-2.325919
1.240000,-1.536569,-1.193200,1.411295,1.282743,0.424972,-0.013732,0.494237,0.205474,0.031470,-1.189621,0.539465,-0.324917,-7.010686,6.376416,-2.224000
1.250000,-1.523717,-1.188940,1.411159,1.287624,0.427055,-0.013434,0.481984,0.211188,0.028111,-1.261439,0.603468,-0.346655,-7.349472,6.422121,-2.123772
1.260000,-1.510817,-1.184659,1.411026,1.292380,0.429198,-0.013171,0.468996,0.217544,0.024541,-1.336606,0.667881,-0.367272,-7.664661,6.455058,-2.028585
1.270000,-1.497869,-1.180356,1.410896,1.297002,0.431408,-0.012944,0.455242,0.224546,0.020769,-1.414734,0.732542,-0.387089,-7.957056,6.474960,-1.934985
1.280000,-1.484877,-1.176030,1.410767,1.301482,0.433691,-0.012756,0.440692,0.232196,0.016803,-1.495668,0.797335,-0.405976,-8.225729,6.481184,-1.842726
1.290000,-1.471840,-1.171682,1.410640,1.305813,0.436054,-0.012609,0.425320,0.240493,0.012652,-1.579166,0.862118,-0.423947,-8.469751,6.473086,-1.751560
1.300000,-1.458761,-1.167309,1.410515,1.309986,0.438503,-0.012504,0.409101,0.249438,0.008327,-1.664978,0.926746,-0.441010,-8.688195,6.450020,-1.661240
1.310000,-1.445641,-1.162911,1.410390,1.313992,0.441045,-0.012443,0.392013,0.259028,0.003836,-1.752932,0.991123,-0.457111,-8.877841,6.409924,-1.573102
1.320000,-1.432482,-1.158488,1.410266,1.317823,0.443686,-0.012427,0.374037,0.269258,-0.000812,-1.842546,1.054955,-0.472402,-9.040334,6.353747,-1.485122
1.330000,-1.419285,-1.154037,1.410141,1.321470,0.446432,-0.012459,0.355157,0.280124,-0.005609,-1.933646,1.118143,-0.486812,-9.175029,6.281018,-1.396858
1.340000,-1.406053,-1.149559,1.410016,1.324923,0.449290,-0.012540,0.335360,0.291619,-0.010546,-2.025952,1.180518,-0.500337,-9.281279,6.191268,-1.307869
1.350000,-1.392788,-1.145051,1.409890,1.328174,0.452266,-0.012671,0.314635,0.303732,-0.015613,-2.119175,1.241910,-0.512966,-9.358437,6.084026,-1.217714
1.360000,-1.379490,-1.140513,1.409763,1.331213,0.455367,-0.012853,0.292973,0.316454,-0.020802,-2.213140,1.302246,-0.524695,-9.402855,5.956128,-1.125719
1.370000,-1.366164,-1.135943,1.409633,1.334030,0.458597,-0.013087,0.270371,0.329772,-0.026104,-2.307266,1.361092,-0.535484,-9.417256,5.810128,-1.031705
1.380000,-1.352811,-1.131341,1.409501,1.336617,0.461964,-0.013375,0.246828,0.343671,-0.031509,-2.401385,1.418387,-0.545321,-9.401360,5.645885,-0.935258
1.390000,-1.339433,-1.126703,1.409366,1.338964,0.465473,-0.013718,0.222344,0.358134,-0.037007,-2.495191,1.473949,-0.554180,-9.354888,5.463259,-0.835967
1.400000,-1.326032,-1.122031,1.409226,1.341061,0.469129,-0.014116,0.196926,0.373143,-0.042589,-2.588380,1.527591,-0.562029,-9.277562,5.262110,-0.733418
1.410000,-1.312612,-1.117320,1.409083,1.342899,0.472937,-0.014570,0.170578,0.388680,-0.048245,-2.680789,1.579294,-0.568906,-9.165298,5.038129,-0.625418
1.420000,-1.299175,-1.112571,1.408935,1.344469,0.476904,-0.015081,0.143314,0.404721,-0.053963,-2.771752,1.628479,-0.574604,-9.022086,4.795855,-0.513554
1.430000,-1.285724,-1.107782,1.408781,1.345762,0.481033,-0.015649,0.115148,0.421242,-0.059733,-2.861129,1.675151,-0.579164,-8.848115,4.535657,-0.397630
1.440000,-1.272261,-1.102950,1.408622,1.346769,0.485330,-0.016275,0.086098,0.438215,-0.065543,-2.948612,1.719133,-0.582543,-8.643569,4.257908,-0.277454
1.450000,-1.258789,-1.098075,1.408456,1.347481,0.489799,-0.016960,0.056183,0.455615,-0.071380,-3.033899,1.760252,-0.584698,-8.408636,3.962977,-0.152829
1.460000,-1.245312,-1.093153,1.408282,1.347890,0.494444,-0.017703,0.025426,0.473413,-0.077234,-3.116862,1.798553,-0.585690,-8.139028,3.645767,-0.020875
1.470000,-1.231833,-1.088185,1.408101,1.347987,0.499269,-0.018505,-0.006144,0.491575,-0.083089,-3.196781,1.833359,-0.585221,-7.839955,3.312785,0.115586
1.480000,-1.218354,-1.083168,1.407912,1.347765,0.504276,-0.019365,-0.038499,0.510068,-0.088933,-3.273565,1.864760,-0.583364,-7.512149,2.965070,0.256420
1.490000,-1.204878,-1.078099,1.407714,1.347215,0.509471,-0.020283,-0.071604,0.528858,-0.094752,-3.346930,1.892614,-0.580078,-7.156346,2.603663,0.401492
1.500000,-1.191410,-1.072977,1.407506,1.346330,0.514854,-0.021260,-0.105425,0.547909,-0.100530,-3.416601,1.916791,-0.575321,-6.773280,2.229603,0.550668
1.510000,-1.177953,-1.067801,1.407288,1.345104,0.520430,-0.022294,-0.139925,0.567184,-0.106254,-3.482484,1.937372,-0.569147,-6.359225,1.838772,0.706240
1.520000,-1.164509,-1.062568,1.407060,1.343530,0.526199,-0.023384,-0.175060,0.586643,-0.111908,-3.543900,1.953763,-0.561292,-5.919922,1.437999,0.865348
1.530000,-1.151083,-1.057277,1.406821,1.341601,0.532163,-0.024531,-0.210788,0.606246,-0.117475,-3.600803,1.966104,-0.551830,-5.456652,1.028955,1.027561
1.540000,-1.137679,-1.051924,1.406569,1.339312,0.538324,-0.025734,-0.247061,0.625951,-0.122939,-3.652958,1.974320,-0.540732,-4.970695,0.613311,1.192448
1.550000,-1.124298,-1.046509,1.406306,1.336658,0.544682,-0.026990,-0.283830,0.645718,-0.128284,-3.700145,1.978354,-0.527974,-4.463333,0.192739,1.359576
1.560000,-1.110947,-1.041030,1.406029,1.333634,0.551238,-0.028299,-0.321048,0.665505,-0.133493,-3.742295,1.978263,-0.513576,-3.932358,-0.233585,1.529570
1.570000,-1.097627,-1.035484,1.405740,1.330236,0.557992,-0.029659,-0.358658,0.685269,-0.138550,-3.778887,1.973790,-0.497425,-3.382966,-0.661189,1.700811
1.580000,-1.084343,-1.029869,1.405436,1.326460,0.564944,-0.031069,-0.396607,0.704967,-0.143436,-3.809899,1.965042,-0.479558,-2.816863,-1.088098,1.872740
1.590000,-1.071099,-1.024184,1.405118,1.322303,0.572091,-0.032527,-0.434837,0.724556,-0.148135,-3.835174,1.952036,-0.459970,-2.235757,-1.512335,2.044796
1.600000,-1.057898,-1.018427,1.404785,1.317762,0.579434,-0.034031,-0.473291,0.743993,-0.152630,-3.854570,1.934810,-0.438663,-1.641355,-1.931923,2.216417
1.610000,-1.044745,-1.012595,1.404437,1.312836,0.586970,-0.035579,-0.511909,0.763238,-0.156902,-3.868038,1.913383,-0.415635,-1.033468,-2.343938,2.386781
1.620000,-1.031643,-1.006687,1.404074,1.307524,0.594698,-0.037169,-0.550631,0.782247,-0.160937,-3.875292,1.887918,-0.390921,-0.415932,-2.747467,2.555620
1.630000,-1.018596,-1.000701,1.403694,1.301824,0.602615,-0.038797,-0.589395,0.800983,-0.164715,-3.876331,1.858468,-0.364529,0.209312,-3.140650,2.722406
1.640000,-1.005608,-0.994634,1.403297,1.295736,0.610717,-0.040462,-0.628137,0.819404,-0.168222,-3.871086,1.825145,-0.336482,0.840325,-3.521627,2.886608
1.650000,-0.992682,-0.988486,1.402884,1.289261,0.619001,-0.042160,-0.666795,0.837473,-0.171439,-3.859511,1.788082,-0.306807,1.475167,-3.888536,3.047699
1.660000,-0.979824,-0.982253,1.402454,1.282401,0.627465,-0.043890,-0.705306,0.855152,-0.174352,-3.841581,1.747283,-0.275513,2.111998,-4.235854,3.204461
1.670000,-0.967036,-0.975936,1.402007,1.275156,0.636103,-0.045646,-0.743606,0.872407,-0.176945,-3.817276,1.703259,-0.242701,2.748767,-4.565832,3.357136
1.680000,-0.954322,-0.969531,1.401541,1.267529,0.644912,-0.047427,-0.781630,0.889206,-0.179201,-3.786612,1.656029,-0.208385,3.383522,-4.877059,3.505281
1.690000,-0.941686,-0.963037,1.401058,1.259524,0.653886,-0.049229,-0.819317,0.905518,-0.181107,-3.749619,1.605785,-0.172612,4.014308,-5.168123,3.648449
1.700000,-0.929133,-0.956453,1.400557,1.251144,0.663020,-0.051048,-0.856602,0.921313,-0.182649,-3.706346,1.552738,-0.135434,4.639176,-5.437611,3.786197
1.710000,-0.916665,-0.949776,1.400037,1.242394,0.672310,-0.052881,-0.893422,0.936562,-0.183811,-3.656798,1.496898,-0.096894,5.254573,-5.678762,3.917739
1.720000,-0.904286,-0.943006,1.399499,1.233278,0.681750,-0.054723,-0.929717,0.951243,-0.184582,-3.601215,1.439003,-0.057085,5.860342,-5.896170,4.043011
1.730000,-0.892000,-0.936141,1.398942,1.223801,0.691333,-0.056571,-0.965426,0.965335,-0.184949,-3.539629,1.379056,-0.016056,6.454727,-6.089078,4.161610
1.740000,-0.879811,-0.929179,1.398367,1.213971,0.701054,-0.058421,-1.000490,0.978818,-0.184900,-3.472164,1.317306,0.026123,7.035972,-6.256728,4.273133
1.750000,-0.867722,-0.922119,1.397774,1.203794,0.710907,-0.060268,-1.034851,0.991676,-0.184423,-3.398959,1.254008,0.069381,7.602321,-6.398366,4.377176
1.760000,-0.855737,-0.914960,1.397162,1.193277,0.720886,-0.062108,-1.068450,1.003892,-0.183509,-3.320054,1.189190,0.113628,8.149018,-6.507221,4.473650
1.770000,-0.843858,-0.907701,1.396532,1.182428,0.730983,-0.063937,-1.101234,1.015457,-0.182147,-3.235905,1.123685,0.158813,8.677673,-6.589285,4.561799
1.780000,-0.832089,-0.900340,1.395883,1.171255,0.741193,-0.065749,-1.133150,1.026363,-0.180330,-3.146566,1.057493,0.204835,9.186898,-6.644539,4.641180
1.790000,-0.820434,-0.892877,1.395217,1.159768,0.751508,-0.067542,-1.164148,1.036605,-0.178048,-3.052237,0.990883,0.251606,9.675304,-6.672961,4.711353
1.800000,-0.808895,-0.885310,1.394533,1.147975,0.761923,-0.069309,-1.194179,1.046180,-0.175296,-2.953134,0.924124,0.299030,10.141502,-6.674531,4.771876
1.810000,-0.797475,-0.877638,1.393831,1.135887,0.772430,-0.071046,-1.223194,1.055085,-0.172066,-2.849327,0.857253,0.346980,10.580106,-6.643443,4.823052
1.820000,-0.786178,-0.869861,1.393112,1.123515,0.783022,-0.072748,-1.251152,1.063327,-0.168354,-2.741435,0.791084,0.395422,10.994213,-6.586171,4.863602
1.830000,-0.775006,-0.861977,1.392376,1.110868,0.793694,-0.074411,-1.278010,1.070909,-0.164156,-2.629527,0.725615,0.444215,11.382926,-6.503402,4.892994
1.840000,-0.763961,-0.853987,1.391624,1.097958,0.804438,-0.076030,-1.303730,1.077842,-0.159469,-2.513864,0.661098,0.493243,11.745344,-6.395825,4.910693
1.850000,-0.753047,-0.845888,1.390856,1.084797,0.815249,-0.077599,-1.328275,1.084135,-0.154291,-2.394711,0.597779,0.542388,12.080569,-6.264126,4.916167
1.860000,-0.742266,-0.837681,1.390072,1.071397,0.826119,-0.079114,-1.351611,1.089800,-0.148622,-2.272169,0.535703,0.591501,12.383228,-6.104179,4.909450
1.870000,-0.731620,-0.829366,1.389274,1.057769,0.837043,-0.080570,-1.373709,1.094855,-0.142462,-2.146942,0.475554,0.640507,12.657443,-5.922077,4.889372
1.880000,-0.721112,-0.820940,1.388461,1.043927,0.848014,-0.081962,-1.394541,1.099318,-0.135813,-2.019116,0.417331,0.689242,12.902863,-5.719097,4.855329
1.890000,-0.710742,-0.812405,1.387634,1.029883,0.859027,-0.083285,-1.414084,1.103209,-0.128678,-1.888982,0.361237,0.737565,13.119135,-5.496516,4.806720
1.900000,-0.700515,-0.803760,1.386795,1.015650,0.870076,-0.084534,-1.432314,1.106550,-0.121063,-1.756832,0.307462,0.785326,13.305910,-5.255613,4.742941
1.910000,-0.690430,-0.795004,1.385944,1.001241,0.881156,-0.085704,-1.449213,1.109365,-0.112974,-1.622794,0.256047,0.832385,13.458567,-4.994261,4.663040
1.920000,-0.680490,-0.786137,1.385082,0.986670,0.892262,-0.086792,-1.464766,1.111680,-0.104418,-1.487569,0.207476,0.878548,13.581546,-4.717559,4.566807
1.930000,-0.670697,-0.777158,1.384209,0.971950,0.903388,-0.087791,-1.478960,1.113524,-0.095406,-1.351262,0.161742,0.923665,13.675016,-4.427200,4.453681
1.940000,-0.661052,-0.768069,1.383326,0.957095,0.914531,-0.088698,-1.491788,1.114925,-0.085949,-1.214166,0.118972,0.967564,13.739150,-4.124879,4.323101
1.950000,-0.651556,-0.758868,1.382435,0.942119,0.925686,-0.089509,-1.503242,1.115914,-0.076060,-1.076576,0.079278,1.010067,13.774117,-3.812289,4.174509
1.960000,-0.642210,-0.749555,1.381536,0.927035,0.936848,-0.090218,-1.513317,1.116520,-0.065752,-0.938632,0.042687,1.051065,13.776333,-3.489417,4.005505
1.970000,-0.633015,-0.740131,1.380631,0.911857,0.948015,-0.090822,-1.522015,1.116778,-0.055044,-0.800976,0.009436,1.090196,13.750185,-3.159875,3.817592
1.980000,-0.623973,-0.730595,1.379720,0.896599,0.959183,-0.091318,-1.529338,1.116720,-0.043955,-0.663721,-0.020495,1.127352,13.696304,-2.825566,3.610437
1.990000,-0.615083,-0.720947,1.378805,0.881275,0.970348,-0.091700,-1.535292,1.116380,-0.032505,-0.527140,-0.047066,1.162340,13.615319,-2.488394,3.383703
2.000000,-0.606348,-0.711188,1.377886,0.865898,0.981509,-0.091967,-1.539884,1.115790,-0.020716,-0.391503,-0.070259,1.194960,13.507863,-2.150262,3.137057
2.010000,-0.597766,-0.701317,1.376966,0.850482,0.992663,-0.092114,-1.543125,1.114986,-0.008612,-0.256961,-0.090078,1.225154,13.371824,-1.812988,2.866608
2.020000,-0.589338,-0.691335,1.376045,0.835040,1.003808,-0.092138,-1.545028,1.114000,0.003778,-0.124027,-0.106532,1.252384,13.210910,-1.478573,2.576011
2.030000,-0.581065,-0.681241,1.375124,0.819585,1.014943,-0.092037,-1.545611,1.112866,0.016425,0.007178,-0.119665,1.276607,13.026089,-1.148928,2.265368
2.040000,-0.572946,-0.671036,1.374204,0.804132,1.026065,-0.091809,-1.544891,1.111617,0.029299,0.136419,-0.129533,1.297625,12.818326,-0.825970,1.934779
2.050000,-0.564982,-0.660720,1.373288,0.788692,1.037175,-0.091451,-1.542890,1.110286,0.042366,0.263471,-0.136213,1.315237,12.588590,-0.511611,1.584344
2.060000,-0.557172,-0.650292,1.372376,0.773278,1.048271,-0.090961,-1.539629,1.108904,0.055594,0.388160,-0.139752,1.329446,12.336837,-0.208979,1.209096
2.070000,-0.549517,-0.639754,1.371469,0.757903,1.059353,-0.090338,-1.535135,1.107501,0.068942,0.510187,-0.140379,1.339582,12.065166,0.081374,0.814824
2.080000,-0.542014,-0.629105,1.370569,0.742580,1.070421,-0.089582,-1.529435,1.106106,0.082372,0.629401,-0.138172,1.345682,11.774668,0.357682,0.402249
2.090000,-0.534665,-0.618346,1.369678,0.727319,1.081475,-0.088691,-1.522557,1.104746,0.095842,0.745621,-0.133278,1.347568,11.466433,0.618181,-0.027907
2.100000,-0.527468,-0.607476,1.368796,0.712132,1.092516,-0.087665,-1.514533,1.103449,0.109309,0.858674,-0.125867,1.345067,11.141550,0.861106,-0.474925
2.110000,-0.520422,-0.596496,1.367925,0.697032,1.103544,-0.086505,-1.505395,1.102238,0.122731,0.968375,-0.116032,1.338252,10.801745,1.082437,-0.944065
2.120000,-0.513527,-0.585405,1.367066,0.682028,1.114561,-0.085211,-1.495177,1.101135,0.136058,1.074632,-0.104187,1.326404,10.447396,1.282939,-1.427891
2.130000,-0.506781,-0.574204,1.366221,0.667132,1.125567,-0.083784,-1.483915,1.100160,0.149243,1.177278,-0.090447,1.309651,10.079513,1.461122,-1.924949
2.140000,-0.500184,-0.562894,1.365391,0.652353,1.136565,-0.082227,-1.471644,1.099332,0.162234,1.276181,-0.075044,1.287866,9.699110,1.615496,-2.433786
2.150000,-0.493733,-0.551473,1.364577,0.637702,1.147555,-0.080540,-1.458404,1.098664,0.174983,1.371221,-0.058222,1.260940,9.307199,1.744573,-2.952948
2.160000,-0.487429,-0.539943,1.363781,0.623188,1.158539,-0.078728,-1.444234,1.098172,0.187438,1.462226,-0.040120,1.229016,8.906399,1.843782,-3.487016
2.170000,-0.481269,-0.528302,1.363003,0.608820,1.169519,-0.076793,-1.429173,1.097865,0.199545,1.549245,-0.021302,1.191447,8.495918,1.915091,-4.027763
2.180000,-0.475252,-0.516552,1.362245,0.594607,1.180497,-0.074738,-1.413263,1.097748,0.211249,1.632115,-0.001915,1.148446,8.076572,1.957388,-4.572996
2.190000,-0.469376,-0.504692,1.361509,0.580558,1.191474,-0.072569,-1.396545,1.097827,0.222496,1.710750,0.017746,1.099980,7.649177,1.969560,-5.120521
2.200000,-0.463640,-0.492723,1.360794,0.566679,1.202454,-0.070290,-1.379062,1.098103,0.233230,1.785074,0.037373,1.046036,7.214547,1.950495,-5.668148
2.210000,-0.458042,-0.480643,1.360103,0.552979,1.213437,-0.067907,-1.360859,1.098575,0.243400,1.854951,0.056808,0.986824,6.775235,1.895036,-6.218731
2.220000,-0.452580,-0.468454,1.359436,0.539464,1.224426,-0.065424,-1.341978,1.099237,0.252949,1.920482,0.075344,0.921903,6.330106,1.806611,-6.764411
2.230000,-0.447252,-0.456155,1.358795,0.526141,1.235422,-0.062850,-1.322464,1.100079,0.261820,1.981536,0.092828,0.851561,5.879765,1.684600,-7.302378
2.240000,-0.442057,-0.443745,1.358180,0.513017,1.246428,-0.060190,-1.302362,1.101089,0.269962,2.038062,0.108922,0.775890,5.424812,1.528388,-7.829819
2.250000,-0.436991,-0.431226,1.357591,0.500096,1.257445,-0.057453,-1.281718,1.102251,0.277321,2.090018,0.123280,0.695009,4.965852,1.337356,-8.343925
2.260000,-0.432054,-0.418597,1.357031,0.487384,1.268473,-0.054647,-1.260578,1.103550,0.283847,2.137323,0.135768,0.609181,4.504624,1.105399,-8.844799
2.270000,-0.427243,-0.405857,1.356499,0.474886,1.279516,-0.051779,-1.238987,1.104958,0.289488,2.180050,0.145515,0.518308,4.040454,0.838061,-9.326358
2.280000,-0.422556,-0.393006,1.355996,0.462606,1.290573,-0.048860,-1.216992,1.106451,0.294197,2.218124,0.152412,0.422729,3.573806,0.535394,-9.785435
2.290000,-0.417990,-0.380045,1.355522,0.450547,1.301645,-0.045899,-1.194640,1.107996,0.297928,2.251520,0.156105,0.322685,3.105144,0.197454,-10.218861
2.300000,-0.413544,-0.366973,1.355078,0.438714,1.312733,-0.042905,-1.171977,1.109561,0.300637,2.280221,0.156243,0.218448,2.634932,-0.175705,-10.623470
2.310000,-0.409215,-0.353790,1.354664,0.427109,1.323836,-0.039889,-1.149051,1.111111,0.302284,2.304221,0.152762,0.110312,2.163485,-0.591314,-10.995841
2.320000,-0.405001,-0.340496,1.354280,0.415734,1.334955,-0.036863,-1.125909,1.112602,0.302831,2.323496,0.144628,-0.001363,1.691433,-1.041142,-11.333090
2.330000,-0.400900,-0.327091,1.353926,0.404591,1.346088,-0.033837,-1.102597,1.113988,0.302246,2.338049,0.131829,-0.116222,1.219257,-1.524240,-11.632079
2.340000,-0.396908,-0.313575,1.353603,0.393682,1.357234,-0.030822,-1.079163,1.115222,0.300498,2.347882,0.114036,-0.233867,0.747439,-2.039663,-11.889670
2.350000,-0.393025,-0.299947,1.353310,0.383008,1.368392,-0.027831,-1.055655,1.116251,0.297561,2.353000,0.090931,-0.353867,0.276461,-2.586465,-12.102727
2.360000,-0.389247,-0.286207,1.353046,0.372569,1.379558,-0.024875,-1.032118,1.117025,0.293412,2.353495,0.062552,-0.475926,-0.195210,-3.172458,-12.263997
2.370000,-0.385573,-0.272355,1.352812,0.362366,1.390731,-0.021966,-1.008601,1.117482,0.288038,2.349193,0.027778,-0.599163,-0.664832,-3.786865,-12.374963
2.380000,-0.381999,-0.258392,1.352607,0.352397,1.401906,-0.019118,-0.985150,1.117560,0.281426,2.340208,-0.013274,-0.723248,-1.131675,-4.427664,-12.432991
2.390000,-0.378524,-0.244317,1.352430,0.342662,1.413081,-0.016342,-0.961812,1.117195,0.273572,2.326571,-0.060857,-0.847638,-1.595012,-5.092837,-12.435448
2.400000,-0.375145,-0.230131,1.352280,0.333160,1.424249,-0.013651,-0.938634,1.116320,0.264474,2.308322,-0.115205,-0.971763,-2.054114,-5.780364,-12.379702
2.410000,-0.371860,-0.215832,1.352156,0.323889,1.435405,-0.011057,-0.915659,1.114871,0.254135,2.285650,-0.176163,-1.095370,-2.511905,-6.497543,-12.254506
2.420000,-0.368667,-0.201423,1.352058,0.314846,1.446544,-0.008572,-0.892936,1.112773,0.242572,2.258267,-0.244797,-1.217030,-2.963556,-7.231898,-12.066895
2.430000,-0.365563,-0.186902,1.351984,0.306029,1.457658,-0.006209,-0.870509,1.109951,0.229802,2.226403,-0.320847,-1.336495,-3.407893,-7.980267,-11.815290
2.440000,-0.362545,-0.172269,1.351934,0.297435,1.468740,-0.003980,-0.848423,1.106331,0.215851,2.190138,-0.404439,-1.453117,-3.843740,-8.739492,-11.498114
2.450000,-0.359613,-0.157527,1.351904,0.289059,1.479782,-0.001896,-0.826721,1.101836,0.200752,2.149561,-0.495663,-1.566233,-4.269920,-9.506412,-11.113788
2.460000,-0.356764,-0.142674,1.351895,0.280899,1.490774,0.000032,-0.805444,1.096395,0.184535,2.104934,-0.594245,-1.675709,-4.689270,-10.286373,-10.646957
2.470000,-0.353995,-0.127712,1.351904,0.272949,1.501706,0.001791,-0.784636,1.089926,0.167254,2.055996,-0.701012,-1.779559,-5.096111,-11.066669,-10.111507
2.480000,-0.351304,-0.112640,1.351930,0.265204,1.512568,0.003373,-0.764337,1.082349,0.148963,2.003059,-0.815566,-1.877711,-5.488776,-11.843096,-9.507547
2.490000,-0.348690,-0.097460,1.351971,0.257660,1.523349,0.004767,-0.744587,1.073588,0.129721,1.946273,-0.937847,-1.969482,-5.865599,-12.611453,-8.835184
2.500000,-0.346150,-0.082173,1.352025,0.250311,1.534036,0.005965,-0.725424,1.063567,0.109597,1.885806,-1.067754,-2.054187,-6.224912,-13.367540,-8.094528
2.510000,-0.343683,-0.066780,1.352090,0.243150,1.544616,0.006957,-0.706882,1.052211,0.088655,1.821938,-1.204922,-2.131893,-6.567537,-14.112734,-7.266802
2.520000,-0.341286,-0.051282,1.352164,0.236171,1.555075,0.007736,-0.688996,1.039444,0.066987,1.754636,-1.349688,-2.200147,-6.889014,-14.836571,-6.373314
2.530000,-0.338959,-0.035679,1.352244,0.229367,1.565400,0.008295,-0.671799,1.025193,0.044683,1.684234,-1.501566,-2.259148,-7.187371,-15.534165,-5.416482
2.540000,-0.336699,-0.019974,1.352329,0.222732,1.575574,0.008628,-0.655321,1.009390,0.021837,1.610973,-1.660268,-2.308274,-7.460638,-16.200632,-4.398730
2.550000,-0.334504,-0.004168,1.352416,0.216259,1.585582,0.008730,-0.639589,0.991966,-0.001448,1.535112,-1.825458,-2.346927,-7.706843,-16.831088,-3.322477
2.560000,-0.332373,0.011737,1.352502,0.209938,1.595408,0.008598,-0.624627,0.972860,-0.025074,1.456880,-1.996775,-2.375413,-7.922698,-17.420091,-2.168012
2.570000,-0.330304,0.027739,1.352587,0.203763,1.605034,0.008228,-0.610458,0.952012,-0.048916,1.376702,-2.173733,-2.391106,-8.107709,-17.963381,-0.962600
2.580000,-0.328297,0.043837,1.352666,0.197726,1.614442,0.007619,-0.597099,0.929368,-0.072855,1.294835,-2.355874,-2.394512,-8.260066,-18.456140,0.288630
2.590000,-0.326350,0.060027,1.352738,0.191819,1.623615,0.006771,-0.584566,0.904879,-0.096764,1.211616,-2.542671,-2.385198,-8.377958,-18.893553,1.580545
2.600000,-0.324460,0.076308,1.352801,0.186032,1.632533,0.005684,-0.572870,0.878501,-0.120515,1.127397,-2.733545,-2.362782,-8.459575,-19.270802,2.908014
2.610000,-0.322628,0.092677,1.352851,0.180359,1.641179,0.004362,-0.562022,0.850193,-0.143984,1.042309,-2.928234,-2.327773,-8.496984,-19.573877,4.287049
2.620000,-0.320853,0.109131,1.352887,0.174789,1.649531,0.002806,-0.552024,0.819927,-0.167024,0.957314,-3.125204,-2.277910,-8.495247,-19.808280,5.688788
2.630000,-0.319132,0.125667,1.352907,0.169315,1.657571,0.001023,-0.542875,0.787682,-0.189495,0.872538,-3.324159,-2.213947,-8.453303,-19.970320,7.105510
2.640000,-0.317466,0.142281,1.352907,0.163929,1.665278,-0.000981,-0.534571,0.753440,-0.211256,0.788386,-3.524357,-2.135775,-8.370091,-20.056307,8.529495
2.650000,-0.315854,0.158971,1.352886,0.158621,1.672633,-0.003199,-0.527104,0.717193,-0.232163,0.705277,-3.725019,-2.043359,-8.244551,-20.062549,9.953023
2.660000,-0.314294,0.175733,1.352842,0.153384,1.679615,-0.005621,-0.520466,0.678933,-0.252082,0.623211,-3.926081,-1.937287,-8.064797,-19.966367,11.382131
2.670000,-0.312786,0.192562,1.352773,0.148209,1.686205,-0.008237,-0.514633,0.638676,-0.270862,0.543642,-4.124911,-1.816389,-7.841919,-19.785383,12.793658
2.680000,-0.311329,0.209455,1.352677,0.143089,1.692382,-0.011034,-0.509585,0.596442,-0.288363,0.466515,-4.321502,-1.681503,-7.576180,-19.518231,14.178199
2.690000,-0.309924,0.226408,1.352552,0.138015,1.698127,-0.013999,-0.505293,0.552257,-0.304446,0.392260,-4.514984,-1.532946,-7.267845,-19.163547,15.526350
2.700000,-0.308569,0.243416,1.352397,0.132980,1.703421,-0.017118,-0.501728,0.506156,-0.318978,0.321300,-4.704477,-1.371129,-6.917179,-18.719964,16.828705
2.710000,-0.307264,0.260475,1.352209,0.127978,1.708244,-0.020373,-0.498861,0.458172,-0.331826,0.253514,-4.890153,-1.196526,-6.510736,-18.159076,18.075102
2.720000,-0.306009,0.277580,1.351989,0.123001,1.712579,-0.023748,-0.496644,0.408373,-0.342868,0.190607,-5.068571,-1.009808,-6.064170,-17.509870,19.256987
2.730000,-0.304804,0.294725,1.351734,0.118043,1.716406,-0.027224,-0.495033,0.356823,-0.351984,0.132358,-5.240063,-0.811633,-5.579423,-16.774288,20.365049
2.740000,-0.303648,0.311906,1.351444,0.113099,1.719710,-0.030781,-0.493980,0.303597,-0.359065,0.079139,-5.403775,-0.602784,-5.058440,-15.954277,21.389977
2.750000,-0.302542,0.329117,1.351118,0.108162,1.722473,-0.034398,-0.493432,0.248777,-0.364007,0.031303,-5.558873,-0.384141,-4.503163,-15.051782,22.322458
2.760000,-0.301485,0.346354,1.350756,0.103229,1.724680,-0.038054,-0.493340,0.192439,-0.366709,-0.011323,-5.705693,-0.155872,-3.902752,-14.039679,23.132926
2.770000,-0.300477,0.363609,1.350357,0.098294,1.726317,-0.041725,-0.493638,0.134698,-0.367099,-0.047226,-5.840715,0.079060,-3.273500,-12.952540,23.834804
2.780000,-0.299519,0.380878,1.349921,0.093355,1.727370,-0.045388,-0.494264,0.075662,-0.365107,-0.076708,-5.964512,0.320439,-2.618914,-11.795872,24.421262
2.790000,-0.298610,0.398155,1.349449,0.088408,1.727826,-0.049019,-0.495150,0.015447,-0.360673,-0.099532,-6.076419,0.567077,-1.942504,-10.575179,24.885468
2.800000,-0.297751,0.415433,1.348941,0.083451,1.727675,-0.052593,-0.496231,-0.045825,-0.353752,-0.115497,-6.175821,0.817718,-1.247779,-9.295966,25.220592
2.810000,-0.296941,0.432706,1.348398,0.078483,1.726907,-0.056086,-0.497440,-0.108035,-0.344293,-0.124737,-6.262973,1.072538,-0.530703,-7.943233,25.381855
2.820000,-0.296181,0.449969,1.347820,0.073502,1.725512,-0.059471,-0.498702,-0.171038,-0.332298,-0.126413,-6.335451,1.326589,0.196748,-6.545499,25.405020
2.830000,-0.295471,0.467214,1.347209,0.068509,1.723484,-0.062724,-0.499944,-0.234696,-0.317763,-0.120782,-6.393760,1.580171,0.930141,-5.110781,25.287900
2.840000,-0.294811,0.484436,1.346566,0.063504,1.720817,-0.065818,-0.501093,-0.298865,-0.300701,-0.107805,-6.437570,1.831872,1.665045,-3.647093,25.028311
2.850000,-0.294201,0.501628,1.345893,0.058488,1.717506,-0.068729,-0.502076,-0.363399,-0.281137,-0.087491,-6.466632,2.080255,2.397027,-2.162451,24.624068
2.860000,-0.293642,0.518784,1.345192,0.053463,1.713548,-0.071433,-0.502818,-0.428149,-0.259092,-0.059832,-6.480821,2.325668,3.120208,-0.663719,24.027407
2.870000,-0.293132,0.535897,1.344465,0.048432,1.708942,-0.073904,-0.503248,-0.492965,-0.234646,-0.025061,-6.479942,2.562360,3.831780,0.839795,23.287303
2.880000,-0.292673,0.552961,1.343715,0.043399,1.703689,-0.076118,-0.503296,-0.557697,-0.207872,0.016751,-6.464037,2.790948,4.527488,2.339935,22.407153
2.890000,-0.292264,0.569969,1.342944,0.038368,1.697789,-0.078054,-0.502891,-0.622196,-0.178858,0.065422,-6.433181,3.010048,5.203077,3.828545,21.390352
2.900000,-0.291905,0.586915,1.342155,0.033343,1.691246,-0.079688,-0.501965,-0.686312,-0.147707,0.120731,-6.387531,3.218311,5.854292,5.297467,20.240298
2.910000,-0.291597,0.603792,1.341351,0.028331,1.684065,-0.081002,-0.500451,-0.749890,-0.114515,0.182788,-6.326571,3.416024,6.467396,6.719514,18.919883
2.920000,-0.291339,0.620594,1.340536,0.023336,1.676251,-0.081973,-0.498290,-0.812796,-0.079433,0.250396,-6.252404,3.598111,7.048776,8.107892,17.477966
2.930000,-0.291130,0.637315,1.339713,0.018367,1.667811,-0.082584,-0.495424,-0.874892,-0.042603,0.323647,-6.164545,3.765207,7.595339,9.456775,15.922903
2.940000,-0.290971,0.653948,1.338885,0.013430,1.658756,-0.082820,-0.491799,-0.936043,-0.004182,0.402177,-6.063419,3.916220,8.103992,10.760336,14.263051
2.950000,-0.290862,0.670488,1.338058,0.008534,1.649094,-0.082663,-0.487364,-0.996118,0.035664,0.485590,-5.949509,4.050146,8.571640,12.012750,12.506765
2.960000,-0.290801,0.686928,1.337233,0.003686,1.638837,-0.082102,-0.482063,-1.054980,0.076772,0.574339,-5.822216,4.167130,8.973064,13.179445,10.635434
2.970000,-0.290788,0.703262,1.336417,-0.001105,1.627999,-0.081125,-0.475865,-1.112524,0.118943,0.665891,-5.684834,4.263804,9.330004,14.286861,8.687684
2.980000,-0.290822,0.719486,1.335612,-0.005829,1.616591,-0.079721,-0.468734,-1.168641,0.161982,0.760789,-5.536684,4.340667,9.642077,15.332692,6.675173
2.990000,-0.290904,0.735592,1.334824,-0.010476,1.604631,-0.077883,-0.460639,-1.223224,0.205689,0.858582,-5.378393,4.397130,9.908898,16.314632,4.609557
3.000000,-0.291032,0.751577,1.334056,-0.015038,1.592132,-0.075605,-0.451554,-1.276177,0.249855,0.958815,-5.210612,4.432720,10.130081,17.230376,2.502497
3.010000,-0.291204,0.767433,1.333313,-0.019504,1.579113,-0.072885,-0.441453,-1.327394,0.294275,1.061311,-5.032774,4.447301,10.298136,18.046304,0.360103
3.020000,-0.291421,0.783157,1.332600,-0.023864,1.565590,-0.069720,-0.430323,-1.376806,0.338730,1.164943,-4.848511,4.440112,10.420656,18.795257,-1.799742
3.030000,-0.291681,0.798743,1.331920,-0.028107,1.551583,-0.066111,-0.418151,-1.424340,0.383005,1.269574,-4.657087,4.411289,10.498125,19.478765,-3.964699
3.040000,-0.291983,0.814187,1.331279,-0.032223,1.537110,-0.062061,-0.404930,-1.469926,0.426883,1.374757,-4.459149,4.360842,10.531031,20.098356,-6.122432
3.050000,-0.292325,0.829484,1.330681,-0.036202,1.522191,-0.057575,-0.390656,-1.513503,0.470150,1.480048,-4.255328,4.288905,10.519858,20.655558,-8.260603
3.060000,-0.292707,0.844630,1.330129,-0.040033,1.506846,-0.052661,-0.375323,-1.555008,0.512586,1.585657,-4.045558,4.195301,10.448726,21.134643,-10.355884
3.070000,-0.293125,0.859620,1.329629,-0.043705,1.491098,-0.047327,-0.358945,-1.594399,0.553987,1.689616,-3.832056,4.081440,10.336492,21.556510,-12.408274
3.080000,-0.293580,0.874450,1.329184,-0.047209,1.474966,-0.041585,-0.341535,-1.631636,0.594147,1.792258,-3.614606,3.947315,10.185645,21.924799,-14.406783
3.090000,-0.294069,0.889118,1.328798,-0.050533,1.458472,-0.035449,-0.323106,-1.666680,0.632868,1.893209,-3.393726,3.793521,9.998675,22.243152,-16.340418
3.100000,-0.294590,0.903619,1.328476,-0.053667,1.441639,-0.028933,-0.303677,-1.699501,0.669954,1.992120,-3.169897,3.620760,9.778073,22.515210,-18.198189
3.110000,-0.295142,0.917950,1.328221,-0.056603,1.424490,-0.022055,-0.283265,-1.730068,0.705212,2.089305,-2.943392,3.428933,9.510195,22.740274,-19.946037
3.120000,-0.295722,0.932108,1.328036,-0.059330,1.407046,-0.014835,-0.261901,-1.758362,0.738476,2.182955,-2.715026,3.221126,9.215639,22.926857,-21.598862
3.130000,-0.296328,0.946090,1.327925,-0.061838,1.389330,-0.007293,-0.239616,-1.784363,0.769581,2.273544,-2.484969,2.997300,8.898871,23.079133,-23.148497
3.140000,-0.296958,0.959893,1.327891,-0.064119,1.371366,0.000549,-0.216441,-1.808056,0.798373,2.360873,-2.253544,2.758527,8.564356,23.201275,-24.586777
3.150000,-0.297609,0.973516,1.327937,-0.066164,1.353177,0.008666,-0.192410,-1.829430,0.824706,2.444787,-2.021030,2.505963,8.216559,23.297456,-25.905534
3.160000,-0.298280,0.986956,1.328066,-0.067964,1.334785,0.017035,-0.167567,-1.848480,0.848434,2.524240,-1.788233,2.239392,7.883560,23.386124,-27.059971
3.170000,-0.298968,1.000211,1.328279,-0.069512,1.316215,0.025626,-0.141936,-1.865192,0.869458,2.601380,-1.554010,1.963566,7.543318,23.455430,-28.083037
3.180000,-0.299669,1.013280,1.328579,-0.070800,1.297489,0.034414,-0.115551,-1.879558,0.887674,2.675087,-1.319181,1.678181,7.197407,23.507797,-28.971052
3.190000,-0.300383,1.026161,1.328968,-0.071821,1.278632,0.043370,-0.088446,-1.891574,0.902994,2.745314,-1.083902,1.384607,6.847400,23.545651,-29.720333
3.200000,-0.301105,1.038852,1.329447,-0.072567,1.259666,0.052464,-0.060656,-1.901235,0.915343,2.812027,-0.848308,1.084249,6.494871,23.571417,-30.327201
3.210000,-0.301833,1.051354,1.330017,-0.073032,1.240615,0.061667,-0.032216,-1.908548,0.924647,2.875287,-0.613277,0.777262,6.139408,23.606997,-30.755434
3.220000,-0.302565,1.063664,1.330680,-0.073209,1.221503,0.070947,-0.003162,-1.913500,0.930877,2.934907,-0.377070,0.468174,5.784814,23.632954,-31.037875
3.230000,-0.303296,1.075784,1.331436,-0.073093,1.202353,0.080274,0.026470,-1.916089,0.934004,2.990992,-0.140650,0.156989,5.432904,23.649328,-31.174827
3.240000,-0.304025,1.087711,1.332286,-0.072678,1.183189,0.089617,0.056646,-1.916313,0.934014,3.043580,0.095885,-0.154839,5.085495,23.656159,-31.166594
3.250000,-0.304749,1.099447,1.333229,-0.071959,1.164035,0.098944,0.087330,-1.914171,0.930909,3.092723,0.332441,-0.465860,4.744405,23.653488,-31.013479
3.260000,-0.305464,1.110992,1.334265,-0.070930,1.144914,0.108225,0.118486,-1.909672,0.924691,3.138205,0.568209,-0.775861,4.418765,23.659387,-30.684611
3.270000,-0.306166,1.122346,1.335393,-0.069587,1.125849,0.117428,0.150084,-1.902807,0.915406,3.180802,0.804785,-1.080475,4.102181,23.653655,-30.215284
3.280000,-0.306854,1.133509,1.336613,-0.067927,1.106865,0.126523,0.182092,-1.893576,0.903100,3.220282,1.041237,-1.379712,3.795572,23.634124,-29.609621
3.290000,-0.307524,1.144484,1.337923,-0.065944,1.087986,0.135481,0.214479,-1.881983,0.887834,3.256750,1.277415,-1.672227,3.499860,23.598626,-28.871740
3.300000,-0.308172,1.155270,1.339322,-0.063636,1.069234,0.144270,0.247217,-1.868030,0.869682,3.290319,1.513149,-1.956720,3.215964,23.544993,-28.005762
3.310000,-0.308796,1.165869,1.340808,-0.060999,1.050633,0.152865,0.280268,-1.851729,0.848718,3.320299,1.747601,-2.233081,2.965336,23.487360,-26.986710
3.320000,-0.309391,1.176283,1.342378,-0.058029,1.032207,0.161236,0.313615,-1.833080,0.825056,3.348746,1.982086,-2.497365,2.725852,23.405260,-25.851366
3.330000,-0.309955,1.186514,1.344032,-0.054725,1.013979,0.169358,0.347235,-1.812091,0.798810,3.374847,2.215611,-2.749746,2.495919,23.294527,-24.607413
3.340000,-0.310484,1.196563,1.345765,-0.051084,0.995973,0.177204,0.381104,-1.788772,0.770104,3.398691,2.447868,-2.989177,2.273943,23.150997,-23.262534
3.350000,-0.310976,1.206434,1.347575,-0.047103,0.978212,0.184752,0.415201,-1.763139,0.739073,3.420348,2.678508,-3.214686,2.058332,22.970506,-21.824413
3.360000,-0.311425,1.216128,1.349459,-0.042779,0.960718,0.191979,0.449504,-1.735207,0.705853,3.439903,2.907294,-3.426024,1.846745,22.745003,-20.284462
3.370000,-0.311830,1.225649,1.351413,-0.038112,0.943515,0.198863,0.483992,-1.705001,0.670605,3.457327,3.133432,-3.620849,1.638426,22.474686,-18.668627
3.380000,-0.312186,1.235000,1.353435,-0.033099,0.926625,0.205384,0.518644,-1.672548,0.633491,3.472677,3.356626,-3.799176,1.431874,22.155865,-16.986587
3.390000,-0.312491,1.244183,1.355519,-0.027739,0.910071,0.211527,0.553439,-1.637880,0.594679,3.485965,3.576375,-3.960392,1.225587,21.784851,-15.248015
3.400000,-0.312740,1.253202,1.357664,-0.022030,0.893875,0.217273,0.588356,-1.601034,0.554342,3.497185,3.792137,-4.103980,1.018062,21.357956,-13.462589
3.410000,-0.312930,1.262062,1.359864,-0.015971,0.878058,0.222609,0.623375,-1.562046,0.512657,3.506287,4.003913,-4.229752,0.808552,20.856916,-11.634139
3.420000,-0.313058,1.270765,1.362115,-0.009562,0.862641,0.227522,0.658475,-1.520973,0.469808,3.513308,4.209721,-4.336835,0.594709,20.294401,-9.778901
3.430000,-0.313120,1.279316,1.364413,-0.002801,0.847645,0.232002,0.693634,-1.477871,0.425982,3.518162,4.409589,-4.425275,0.374936,19.668508,-7.907269
3.440000,-0.313113,1.287719,1.366753,0.004311,0.833090,0.236039,0.728831,-1.432803,0.381365,3.520781,4.602874,-4.494960,0.147640,18.977332,-6.029633
3.450000,-0.313033,1.295979,1.369132,0.011775,0.818995,0.239627,0.764042,-1.385838,0.336146,3.521084,4.788912,-4.545882,-0.088774,18.218970,-4.156386
3.460000,-0.312876,1.304101,1.371544,0.019592,0.805379,0.242761,0.799247,-1.337041,0.290514,3.519202,4.967984,-4.577805,-0.341744,17.367247,-2.306306
3.470000,-0.312640,1.312088,1.373986,0.027760,0.792260,0.245437,0.834418,-1.286508,0.244651,3.514471,5.137114,-4.591714,-0.606305,16.447501,-0.480370
3.480000,-0.312320,1.319947,1.376451,0.036280,0.779654,0.247654,0.869527,-1.234331,0.198740,3.507034,5.296711,-4.587524,-0.883337,15.460801,1.312055
3.490000,-0.311913,1.327683,1.378937,0.045150,0.767578,0.249412,0.904549,-1.180608,0.152959,3.496760,5.446110,-4.565616,-1.173719,14.408214,3.061605
3.500000,-0.311416,1.335301,1.381438,0.054370,0.756047,0.250714,0.939453,-1.125445,0.107485,3.483512,5.584659,-4.526466,-1.478330,13.290808,4.758915
3.510000,-0.310825,1.342806,1.383950,0.063939,0.745074,0.251563,0.974212,-1.068942,0.062495,3.467492,5.712739,-4.469786,-1.806861,12.083757,6.372960
3.520000,-0.310136,1.350204,1.386468,0.073854,0.734672,0.251966,1.008791,-1.011231,0.018142,3.447719,5.827292,-4.398268,-2.150301,10.817195,7.918688
3.530000,-0.309346,1.357501,1.388988,0.084114,0.724853,0.251928,1.043155,-0.952439,-0.025420,3.424437,5.928899,-4.311662,-2.508447,9.495359,9.389385
3.540000,-0.308452,1.364703,1.391505,0.094716,0.715626,0.251460,1.077268,-0.892698,-0.068044,3.397501,6.017029,-4.210753,-2.881100,8.122488,10.778341
3.550000,-0.307451,1.371816,1.394015,0.105658,0.707001,0.250571,1.111092,-0.832145,-0.109590,3.366767,6.091193,-4.096390,-3.268060,6.702822,12.078841
3.560000,-0.306338,1.378845,1.396515,0.116937,0.698985,0.249272,1.144592,-0.770914,-0.149917,3.332303,6.151704,-3.968274,-3.674437,5.221392,13.253389
3.570000,-0.305111,1.385798,1.399000,0.128549,0.691585,0.247577,1.177725,-0.709161,-0.188918,3.293472,6.196358,-3.830275,-4.094069,3.703995,14.329826
3.580000,-0.303766,1.392679,1.401465,0.140490,0.684803,0.245499,1.210448,-0.647038,-0.226488,3.250381,6.225686,-3.682014,-4.526107,2.157221,15.305211
3.590000,-0.302300,1.399496,1.403908,0.152756,0.678645,0.243052,1.242718,-0.584699,-0.262528,3.202911,6.239426,-3.524518,-4.969700,0.587663,16.176598
3.600000,-0.300710,1.406254,1.406325,0.165343,0.673110,0.240253,1.274491,-0.522302,-0.296951,3.150951,6.237385,-3.358839,-5.423997,-0.998091,16.941047
3.610000,-0.298992,1.412960,1.408712,0.178244,0.668198,0.237118,1.305731,-0.460001,-0.329666,3.095251,6.219778,-3.184716,-5.909701,-2.602172,17.561604
3.620000,-0.297144,1.419620,1.411066,0.191455,0.663909,0.233665,1.336380,-0.397960,-0.360626,3.033698,6.185725,-3.006451,-6.401769,-4.208198,18.073499
3.630000,-0.295162,1.426240,1.413385,0.204969,0.660237,0.229912,1.366388,-0.336340,-0.389780,2.967206,6.135633,-2.823605,-6.896711,-5.808512,18.477956
3.640000,-0.293044,1.432827,1.415664,0.218781,0.657180,0.225876,1.395707,-0.275300,-0.417087,2.895766,6.069599,-2.637246,-7.391038,-7.395455,18.776194
3.650000,-0.290786,1.439386,1.417901,0.232881,0.654729,0.221576,1.424287,-0.215000,-0.442517,2.819399,5.987794,-2.448431,-7.881260,-8.961367,18.969435
3.660000,-0.288385,1.445923,1.420094,0.247264,0.652877,0.217032,1.452068,-0.155600,-0.466039,2.737171,5.890086,-2.257129,-8.338746,-10.488958,19.031766
3.670000,-0.285839,1.452445,1.422241,0.261920,0.651614,0.212262,1.479015,-0.097249,-0.487659,2.651529,5.777702,-2.066915,-8.788227,-11.981381,18.994865
3.680000,-0.283146,1.458958,1.424339,0.276841,0.650928,0.207285,1.505084,-0.040095,-0.507380,2.561434,5.650597,-1.877547,-9.229289,-13.432157,18.863278
3.690000,-0.280302,1.465466,1.426386,0.292019,0.650807,0.202120,1.530230,0.015715,-0.525216,2.466972,5.509219,-1.689950,-9.661522,-14.834807,18.641547
3.700000,-0.277305,1.471976,1.428381,0.307443,0.651237,0.196787,1.554409,0.070043,-0.541188,2.368234,5.354083,-1.505001,-10.084514,-16.182853,18.334217
3.710000,-0.274152,1.478492,1.430321,0.323103,0.652203,0.191302,1.577585,0.122745,-0.555320,2.265769,5.185061,-1.322846,-10.509331,-17.452013,17.928413
3.720000,-0.270842,1.485021,1.432206,0.338991,0.653687,0.185686,1.599710,0.173703,-0.567660,2.158598,5.004466,-1.145903,-10.922678,-18.655791,17.448232
3.730000,-0.267372,1.491568,1.434035,0.355094,0.655671,0.179955,1.620744,0.222796,-0.578255,2.047359,4.812178,-0.974107,-11.322741,-19.789886,16.900349
3.740000,-0.263739,1.498136,1.435805,0.371402,0.658136,0.174127,1.640645,0.269910,-0.587161,1.932194,4.608915,-0.808100,-11.707701,-20.850000,16.291443
3.750000,-0.259943,1.504732,1.437517,0.387903,0.661062,0.168217,1.659375,0.314940,-0.594438,1.813262,4.395438,-0.648459,-12.075742,-21.831834,15.628190
3.760000,-0.255981,1.511359,1.439169,0.404585,0.664428,0.162243,1.676902,0.357778,-0.600152,1.691082,4.171659,-0.495575,-12.433639,-22.708511,14.914241
3.770000,-0.251851,1.518022,1.440762,0.421437,0.668210,0.156219,1.693185,0.398345,-0.604374,1.565045,3.940541,-0.350175,-12.769933,-23.501073,14.159670
3.780000,-0.247551,1.524725,1.442294,0.438445,0.672387,0.150160,1.708192,0.436563,-0.607181,1.435765,3.701923,-0.212494,-13.081753,-24.207988,13.371525
3.790000,-0.243081,1.531471,1.443765,0.455596,0.676934,0.144080,1.721890,0.472362,-0.608651,1.303501,3.456671,-0.082833,-13.366232,-24.827720,12.556852
3.800000,-0.238439,1.538264,1.445175,0.472878,0.681826,0.137991,1.734253,0.505678,-0.608865,1.168541,3.205665,0.038579,-13.620499,-25.358734,11.722699
3.810000,-0.233623,1.545109,1.446525,0.490277,0.687039,0.131907,1.745239,0.536449,-0.607912,1.029888,2.948866,0.151131,-13.808530,-25.775972,10.887449
3.820000,-0.228633,1.552006,1.447813,0.507779,0.692546,0.125837,1.754845,0.564643,-0.605871,0.890996,2.689391,0.255799,-13.964673,-26.104304,10.045426
3.830000,-0.223467,1.558960,1.449042,0.525369,0.698323,0.119793,1.763054,0.590227,-0.602824,0.750697,2.427072,0.352036,-14.090119,-26.345078,9.202291
3.840000,-0.218125,1.565974,1.450209,0.543035,0.704342,0.113784,1.769855,0.613177,-0.598858,0.609292,2.162777,0.439860,-14.186060,-26.499638,8.363702
3.850000,-0.212606,1.573048,1.451317,0.560762,0.710578,0.107818,1.775237,0.633479,-0.594055,0.467070,1.897362,0.519344,-14.253687,-26.569332,7.535320
3.860000,-0.206910,1.580186,1.452366,0.578535,0.717003,0.101905,1.779199,0.651118,-0.588506,0.324707,1.631161,0.589952,-14.304243,-26.542670,6.739645
3.870000,-0.201036,1.587389,1.453356,0.596341,0.723591,0.096051,1.781730,0.666104,-0.582282,0.181525,1.366204,0.653450,-14.327638,-26.435405,5.963433
3.880000,-0.194983,1.594658,1.454287,0.614165,0.730316,0.090261,1.782829,0.678447,-0.575462,0.038245,1.102712,0.709298,-14.323831,-26.250456,5.210282
3.890000,-0.188752,1.601995,1.455161,0.631993,0.737152,0.084543,1.782496,0.688166,-0.568121,-0.104861,0.841445,0.757745,-14.292783,-25.990740,4.483791
3.900000,-0.182343,1.609401,1.455978,0.649810,0.744071,0.078901,1.780733,0.695286,-0.560331,-0.247520,0.583136,0.799075,-14.234455,-25.659175,3.787556
3.910000,-0.175756,1.616877,1.456739,0.667603,0.751049,0.073338,1.777545,0.699838,-0.552170,-0.389751,0.328200,0.832868,-14.141427,-25.251339,3.143887
3.920000,-0.168991,1.624422,1.457445,0.685356,0.758059,0.067858,1.772942,0.701865,-0.543695,-0.530590,0.077999,0.861234,-14.021943,-24.778387,2.535378
3.930000,-0.162049,1.632038,1.458097,0.703057,0.765078,0.062465,1.766937,0.701414,-0.534965,-0.670105,-0.167163,0.883697,-13.876868,-24.244138,1.963337
3.940000,-0.154931,1.639724,1.458695,0.720690,0.772080,0.057160,1.759545,0.698540,-0.526039,-0.808045,-0.406692,0.900627,-13.707064,-23.652409,1.429069
3.950000,-0.147636,1.647480,1.459240,0.738243,0.779041,0.051945,1.750782,0.693301,-0.516970,-0.944167,-0.640033,0.912409,-13.513396,-23.007015,0.933881
3.960000,-0.140166,1.655304,1.459734,0.755701,0.785938,0.046821,1.740667,0.685761,-0.507813,-1.078330,-0.866715,0.918841,-13.294351,-22.310541,0.494186
3.970000,-0.132522,1.663198,1.460177,0.773052,0.792749,0.041789,1.729223,0.675991,-0.498607,-1.210087,-1.086146,0.921751,-13.053462,-21.568187,0.094335
3.980000,-0.124705,1.671159,1.460570,0.790282,0.799451,0.036849,1.716474,0.664064,-0.489391,-1.339330,-1.297939,0.920859,-12.791882,-20.783921,-0.266217
3.990000,-0.116717,1.679187,1.460914,0.807377,0.806023,0.032001,1.702446,0.650059,-0.480201,-1.465859,-1.501697,0.916556,-12.510768,-19.961710,-0.588012
4.000000,-0.108558,1.687279,1.461210,0.824326,0.812445,0.027245,1.687167,0.634058,-0.471070,-1.589484,-1.697060,0.909226,-12.211273,-19.105524,-0.871594
4.010000,-0.100231,1.695435,1.461460,0.841117,0.818698,0.022579,1.670666,0.616148,-0.462029,-1.710071,-1.883604,0.898880,-11.893444,-18.221949,-1.108189
4.020000,-0.091737,1.703652,1.461662,0.857736,0.824762,0.018004,1.652976,0.596416,-0.453100,-1.827350,-2.061294,0.886766,-11.559680,-17.312012,-1.308799
4.030000,-0.083077,1.711929,1.461820,0.874172,0.830620,0.013517,1.634130,0.574953,-0.444300,-1.941216,-2.229769,0.872819,-11.211274,-16.379361,-1.475107
4.040000,-0.074254,1.720264,1.461933,0.890415,0.836256,0.009117,1.614164,0.551852,-0.435648,-2.051531,-2.388818,0.857373,-10.849515,-15.427640,-1.608798
4.050000,-0.065269,1.728654,1.462003,0.906452,0.841652,0.004803,1.593112,0.527208,-0.427157,-2.158166,-2.538270,0.840746,-10.475696,-14.460498,-1.711557
4.060000,-0.056125,1.737096,1.462029,0.922273,0.846795,0.000574,1.571013,0.501121,-0.418838,-2.261002,-2.677807,0.823107,-10.091266,-13.486166,-1.781727
4.070000,-0.046824,1.745589,1.462014,0.937869,0.851670,-0.003574,1.547905,0.473685,-0.410696,-2.359953,-2.807760,0.805053,-9.697337,-12.503145,-1.824743
4.080000,-0.037369,1.754129,1.461958,0.953228,0.856264,-0.007641,1.523827,0.444999,-0.402738,-2.454922,-2.927851,0.786696,-9.295180,-11.514520,-1.842696
4.090000,-0.027761,1.762713,1.461862,0.968342,0.860566,-0.011629,1.498820,0.415161,-0.394963,-2.545833,-3.038042,0.768275,-8.886068,-10.523376,-1.837679
4.100000,-0.018003,1.771339,1.461726,0.983202,0.864564,-0.015541,1.472924,0.384271,-0.387372,-2.632624,-3.138321,0.750012,-8.471271,-9.532798,-1.811787
4.110000,-0.008098,1.780003,1.461551,0.997798,0.868248,-0.019377,1.446182,0.352430,-0.379961,-2.715194,-3.228499,0.732155,-8.053315,-8.551201,-1.768452
4.120000,0.001952,1.788703,1.461339,1.012123,0.871610,-0.023141,1.418634,0.319733,-0.372727,-2.793623,-3.309127,0.714759,-7.632064,-7.575689,-1.708263
4.130000,0.012144,1.797434,1.461089,1.026168,0.874641,-0.026832,1.390324,0.286280,-0.365663,-2.867828,-3.380041,0.698040,-7.208634,-6.608695,-1.633148
4.140000,0.022475,1.806195,1.460802,1.039927,0.877333,-0.030454,1.361292,0.252165,-0.358763,-2.937793,-3.441338,0.682139,-6.784144,-5.652652,-1.545038
4.150000,0.032941,1.814980,1.460480,1.053392,0.879682,-0.034008,1.331582,0.217484,-0.352017,-3.003511,-3.493139,0.667176,-6.359712,-4.709994,-1.445861
4.160000,0.043541,1.823787,1.460122,1.066556,0.881681,-0.037495,1.301237,0.182335,-0.345414,-3.064920,-3.535374,0.653411,-5.938233,-3.788627,-1.341572
4.170000,0.054272,1.832612,1.459730,1.079414,0.883327,-0.040917,1.270297,0.146807,-0.338946,-3.122204,-3.568725,0.640550,-5.518828,-2.884839,-1.229581
4.180000,0.065129,1.841452,1.459304,1.091960,0.884616,-0.044275,1.238806,0.110991,-0.332600,-3.175307,-3.593135,0.628841,-5.102399,-2.000394,-1.111324
4.190000,0.076110,1.850304,1.458845,1.104189,0.885546,-0.047569,1.206805,0.074974,-0.326365,-3.224264,-3.608804,0.618340,-4.689845,-1.137054,-0.988237
4.200000,0.087211,1.859162,1.458353,1.116095,0.886116,-0.050802,1.174335,0.038843,-0.320229,-3.269120,-3.615952,0.609087,-4.282066,-0.296581,-0.861756
4.210000,0.098431,1.868025,1.457829,1.127674,0.886323,-0.053974,1.141437,0.002685,-0.314177,-3.309847,-3.614611,0.601299,-3.881925,0.514037,-0.738075
4.220000,0.109764,1.876887,1.457274,1.138922,0.886169,-0.057086,1.108151,-0.033423,-0.308199,-3.346692,-3.605524,0.594542,-3.488118,1.298902,-0.613290
4.230000,0.121208,1.885747,1.456687,1.149836,0.885655,-0.060139,1.074516,-0.069400,-0.302282,-3.379633,-3.588722,0.589034,-3.101306,2.056891,-0.488254
4.240000,0.132759,1.894599,1.456071,1.160411,0.884782,-0.063132,1.040571,-0.105172,-0.296414,-3.408743,-3.564479,0.584775,-2.722149,2.786881,-0.363820
4.250000,0.144415,1.903441,1.455425,1.170646,0.883553,-0.066067,1.006354,-0.140666,-0.290582,-3.434103,-3.533082,0.581753,-2.351305,3.487750,-0.240841
4.260000,0.156171,1.912269,1.454750,1.180538,0.881970,-0.068944,0.971902,-0.175809,-0.284773,-3.455721,-3.494634,0.580110,-1.991425,4.153553,-0.124194
4.270000,0.168025,1.921080,1.454046,1.190084,0.880038,-0.071762,0.937251,-0.210537,-0.278976,-3.473874,-3.449898,0.579440,-1.640935,4.788579,-0.010216
4.280000,0.179972,1.929869,1.453315,1.199282,0.877761,-0.074523,0.902436,-0.244786,-0.273180,-3.488572,-3.398967,0.579895,-1.300252,5.392295,0.100732
4.290000,0.192009,1.938634,1.452556,1.208132,0.875144,-0.077226,0.867491,-0.278497,-0.267374,-3.499913,-3.342158,0.581443,-0.969790,5.964170,0.208290
4.300000,0.204133,1.947371,1.451770,1.216632,0.872193,-0.079871,0.832449,-0.311611,-0.261548,-3.508003,-3.279792,0.584049,-0.649966,6.503669,0.312096
4.310000,0.216341,1.956076,1.450959,1.224781,0.868914,-0.082457,0.797342,-0.344073,-0.255689,-3.512875,-3.212025,0.587771,-0.343089,7.005988,0.409273
4.320000,0.228628,1.964748,1.450122,1.232578,0.865314,-0.084984,0.762201,-0.375835,-0.249789,-3.514818,-3.139591,0.592333,-0.047451,7.475389,0.502287
4.330000,0.240991,1.973382,1.449259,1.240025,0.861400,-0.087453,0.727056,-0.406850,-0.243839,-3.513862,-3.062627,0.597803,0.236764,7.911866,0.591083
4.340000,0.253427,1.981975,1.448373,1.247120,0.857179,-0.089861,0.691933,-0.437074,-0.237830,-3.510121,-2.981463,0.604140,0.509372,8.315407,0.675611
4.350000,0.265932,1.990524,1.447462,1.253864,0.852661,-0.092209,0.656862,-0.466466,-0.231754,-3.503714,-2.896429,0.611301,0.770188,8.686004,0.755818
4.360000,0.278503,1.999027,1.446529,1.260257,0.847853,-0.094496,0.621868,-0.494989,-0.225601,-3.494690,-2.807711,0.619278,1.017328,9.020069,0.830739
4.370000,0.291136,2.007480,1.445573,1.266301,0.842764,-0.096721,0.586976,-0.522610,-0.219366,-3.483331,-2.715976,0.627942,1.252516,9.321609,0.901346
4.380000,0.303828,2.015881,1.444594,1.271997,0.837404,-0.098883,0.552209,-0.549299,-0.213040,-3.469680,-2.621386,0.637291,1.475775,9.591054,0.967698
4.390000,0.316575,2.024228,1.443595,1.277346,0.831781,-0.100981,0.517590,-0.575029,-0.206618,-3.453855,-2.524261,0.647282,1.687129,9.828832,1.029854
4.400000,0.329374,2.032516,1.442575,1.282349,0.825906,-0.103015,0.483139,-0.599777,-0.200093,-3.435977,-2.424914,0.657874,1.886602,10.035374,1.087874
4.410000,0.342221,2.040745,1.441535,1.287009,0.819789,-0.104983,0.448878,-0.623520,-0.193459,-3.416106,-2.323547,0.669014,2.072781,10.208347,1.142119
4.420000,0.355113,2.048911,1.440476,1.291328,0.813439,-0.106884,0.414823,-0.646242,-0.186711,-3.394496,-2.220724,0.680689,2.247303,10.351279,1.192308
4.430000,0.368046,2.057013,1.439398,1.295307,0.806868,-0.108716,0.380993,-0.667930,-0.179843,-3.371198,-2.116619,0.692846,2.410366,10.464937,1.238466
4.440000,0.381018,2.065048,1.438302,1.298948,0.800084,-0.110480,0.347404,-0.688571,-0.172852,-3.346326,-2.011520,0.705445,2.562172,10.550087,1.280613
4.450000,0.394024,2.073014,1.437188,1.302255,0.793100,-0.112173,0.314072,-0.708158,-0.165733,-3.319991,-1.905709,0.718445,2.702918,10.607498,1.318773
4.460000,0.407062,2.080909,1.436058,1.305231,0.785925,-0.113794,0.281009,-0.726683,-0.158482,-3.292260,-1.799386,0.731773,2.831688,10.636060,1.353846
4.470000,0.420128,2.088732,1.434913,1.307877,0.778570,-0.115342,0.248230,-0.744145,-0.151096,-3.263343,-1.692991,0.745470,2.949935,10.638646,1.384869
4.480000,0.433218,2.096480,1.433752,1.310196,0.771045,-0.116816,0.215746,-0.760544,-0.143572,-3.233295,-1.586696,0.759456,3.057996,10.616252,1.411755
4.490000,0.446330,2.104152,1.432577,1.312193,0.763362,-0.118213,0.183568,-0.775880,-0.135907,-3.202216,-1.480746,0.773691,3.156208,10.569874,1.434421
4.500000,0.459461,2.111747,1.431388,1.313869,0.755531,-0.119533,0.151705,-0.790160,-0.128098,-3.170202,-1.375375,0.788130,3.244907,10.500508,1.452780
4.510000,0.472607,2.119262,1.430186,1.315228,0.747562,-0.120775,0.120167,-0.803390,-0.120144,-3.137318,-1.270770,0.802699,3.323675,10.408159,1.467561
4.520000,0.485764,2.126698,1.428972,1.316273,0.739467,-0.121936,0.088961,-0.815579,-0.112043,-3.103724,-1.167237,0.817430,3.393695,10.294938,1.477765
4.530000,0.498931,2.134051,1.427748,1.317008,0.731254,-0.123015,0.058095,-0.826739,-0.103795,-3.069472,-1.064937,0.832239,3.455397,10.161961,1.483208
4.540000,0.512104,2.141322,1.426512,1.317436,0.722935,-0.124011,0.027574,-0.836883,-0.095398,-3.034643,-0.964060,0.847078,3.509209,10.010347,1.483703
4.550000,0.525279,2.148510,1.425268,1.317561,0.714520,-0.124923,-0.002596,-0.846026,-0.086853,-2.999313,-0.864788,0.861896,3.555560,9.841214,1.479067
4.560000,0.538454,2.155612,1.424014,1.317385,0.706018,-0.125748,-0.032411,-0.854184,-0.078161,-2.963541,-0.767284,0.876630,3.594531,9.655518,1.469390
4.570000,0.551626,2.162630,1.422753,1.316914,0.697440,-0.126485,-0.061866,-0.861378,-0.069321,-2.927429,-0.671722,0.891253,3.626941,9.454558,1.454177
4.580000,0.564791,2.169561,1.421485,1.316149,0.688794,-0.127134,-0.090958,-0.867626,-0.060336,-2.891023,-0.578240,0.905695,3.653263,9.239471,1.433210
4.590000,0.577948,2.176405,1.420211,1.315096,0.680090,-0.127691,-0.119686,-0.872950,-0.051208,-2.854382,-0.486976,0.919897,3.673968,9.011396,1.406270
4.600000,0.591092,2.183163,1.418931,1.313757,0.671338,-0.128157,-0.148046,-0.877373,-0.041939,-2.817560,-0.398052,0.933799,3.689528,8.771470,1.373139
4.610000,0.604222,2.189832,1.417648,1.312136,0.662546,-0.128530,-0.176036,-0.880919,-0.032533,-2.780609,-0.311602,0.947357,3.700474,8.521351,1.333122
4.620000,0.617334,2.196413,1.416361,1.310237,0.653722,-0.128808,-0.203657,-0.883614,-0.022994,-2.743568,-0.227680,0.960461,3.707211,8.261592,1.286534
4.630000,0.630426,2.202906,1.415072,1.308064,0.644876,-0.128989,-0.230908,-0.885482,-0.013326,-2.706478,-0.146399,0.973066,3.710203,7.993267,1.233215
4.640000,0.643494,2.209311,1.413782,1.305620,0.636015,-0.129074,-0.257787,-0.886551,-0.003534,-2.669374,-0.067840,0.985102,3.709915,7.717452,1.173004
4.650000,0.656537,2.215627,1.412491,1.302910,0.627148,-0.129060,-0.284295,-0.886848,0.006374,-2.632289,0.007929,0.996502,3.706812,7.435219,1.105741
4.660000,0.669552,2.221854,1.411201,1.299936,0.618281,-0.128946,-0.310433,-0.886402,0.016394,-2.595264,0.080804,1.007240,3.701813,7.148721,1.030083
4.670000,0.682535,2.227992,1.409912,1.296702,0.609422,-0.128731,-0.336201,-0.885241,0.026517,-2.558279,0.150840,1.017132,3.694872,6.857821,0.947196
4.680000,0.695485,2.234042,1.408626,1.293213,0.600578,-0.128415,-0.361599,-0.883395,0.036734,-2.521372,0.217949,1.026160,3.686397,6.563462,0.857064
4.690000,0.708398,2.240004,1.407344,1.289471,0.591756,-0.127996,-0.386628,-0.880892,0.047037,-2.484555,0.282101,1.034250,3.676797,6.266587,0.759671
4.700000,0.721273,2.245878,1.406067,1.285482,0.582962,-0.127474,-0.411290,-0.877763,0.057415,-2.447838,0.343276,1.041329,3.666479,5.968136,0.655002
4.710000,0.734107,2.251663,1.404795,1.281247,0.574203,-0.126848,-0.435586,-0.874037,0.067860,-2.411258,0.401403,1.047390,3.656651,5.670539,0.541399
4.720000,0.746897,2.257362,1.403530,1.276771,0.565484,-0.126117,-0.459516,-0.869745,0.078359,-2.374741,0.456620,1.052207,3.646824,5.373068,0.420687
4.730000,0.759642,2.262973,1.402273,1.272058,0.556810,-0.125281,-0.483081,-0.864915,0.088900,-2.338321,0.508867,1.055781,3.637312,5.076486,0.293054
4.740000,0.772338,2.268498,1.401025,1.267111,0.548187,-0.124339,-0.506283,-0.859577,0.099471,-2.301992,0.558156,1.058045,3.628425,4.781550,0.158684
4.750000,0.784983,2.273937,1.399787,1.261933,0.539620,-0.123291,-0.529121,-0.853762,0.110057,-2.265749,0.604506,1.058933,3.620473,4.489022,0.017762
4.760000,0.797576,2.279291,1.398560,1.256529,0.531113,-0.122138,-0.551598,-0.847498,0.120645,-2.229619,0.647880,1.058448,3.614773,4.201339,-0.131274
4.770000,0.810113,2.284560,1.397344,1.250903,0.522671,-0.120878,-0.573714,-0.840813,0.131220,-2.193493,0.688470,1.056365,3.610507,3.917378,-0.286278
4.780000,0.822593,2.289744,1.396142,1.245056,0.514298,-0.119513,-0.595468,-0.833738,0.141767,-2.157403,0.726242,1.052704,3.607864,3.637694,-0.446850
4.790000,0.835014,2.294846,1.394954,1.238994,0.505998,-0.118043,-0.616862,-0.826298,0.152269,-2.121330,0.761240,1.047411,3.607033,3.362842,-0.612592
4.800000,0.847372,2.299865,1.393782,1.232720,0.497774,-0.116468,-0.637895,-0.818522,0.162710,-2.085256,0.793517,1.040437,3.608200,3.093377,-0.783104
4.810000,0.859667,2.304802,1.392625,1.226238,0.489628,-0.114789,-0.658567,-0.810437,0.173073,-2.049201,0.823060,1.031794,3.612610,2.831560,-0.959481
4.820000,0.871896,2.309657,1.391486,1.219550,0.481566,-0.113007,-0.678879,-0.802069,0.183340,-2.013043,0.850093,1.021301,3.619267,2.576029,-1.139647
4.830000,0.884058,2.314433,1.390366,1.212661,0.473588,-0.111123,-0.698828,-0.793444,0.193493,-1.976808,0.874603,1.008990,3.628228,2.327132,-1.323021
4.840000,0.896149,2.319129,1.389264,1.205575,0.465698,-0.109138,-0.718414,-0.784585,0.203513,-1.940471,0.896659,0.994832,3.639553,2.085213,-1.509020
4.850000,0.908168,2.323747,1.388183,1.198294,0.457897,-0.107053,-0.737637,-0.775518,0.213383,-1.904008,0.916332,0.978803,3.653301,1.850619,-1.697062
4.860000,0.920114,2.328288,1.387124,1.190823,0.450188,-0.104871,-0.756494,-0.766267,0.223084,-1.867433,0.933635,0.960923,3.670456,1.625260,-1.887515
4.870000,0.931984,2.332751,1.386086,1.183166,0.442572,-0.102592,-0.774985,-0.756853,0.232595,-1.830633,0.948793,0.941092,3.690038,1.407725,-2.078732
4.880000,0.943777,2.337139,1.385072,1.175325,0.435051,-0.100219,-0.793106,-0.747298,0.241899,-1.793624,0.961816,0.919348,3.711993,1.198169,-2.270013
4.890000,0.955490,2.341453,1.384082,1.167305,0.427627,-0.097755,-0.810857,-0.737624,0.250976,-1.756385,0.972784,0.895694,3.736266,0.996747,-2.460660
4.900000,0.967122,2.345692,1.383117,1.159109,0.420299,-0.095201,-0.828233,-0.727849,0.259807,-1.718892,0.981778,0.870140,3.762804,0.803611,-2.649976
4.910000,0.978672,2.349859,1.382178,1.150741,0.413070,-0.092559,-0.845234,-0.717995,0.268372,-1.681147,0.988833,0.842711,3.792192,0.620207,-2.837492
4.920000,0.990137,2.353954,1.381266,1.142206,0.405939,-0.089834,-0.861855,-0.708079,0.276655,-1.643069,0.994153,0.813409,3.823657,0.445241,-3.022252
4.930000,1.001515,2.357978,1.380382,1.133506,0.398908,-0.087027,-0.878094,-0.698118,0.284634,-1.604667,0.997766,0.782277,3.857067,0.278709,-3.203528
4.940000,1.012806,2.361933,1.379526,1.124645,0.391977,-0.084142,-0.893947,-0.688129,0.292294,-1.565922,0.999755,0.749353,3.892288,0.120606,-3.380596
4.950000,1.024008,2.365818,1.378699,1.115628,0.385146,-0.081183,-0.909411,-0.678128,0.299616,-1.526816,1.000206,0.714682,3.929188,-0.029072,-3.552728
4.960000,1.035118,2.369636,1.377903,1.106458,0.378415,-0.078151,-0.924483,-0.668130,0.306582,-1.487343,0.999165,0.678296,3.967895,-0.169389,-3.718661
4.970000,1.046136,2.373387,1.377137,1.097140,0.371783,-0.075052,-0.939157,-0.658149,0.313176,-1.447465,0.996804,0.640306,4.007984,-0.301404,-3.878272
4.980000,1.057061,2.377072,1.376402,1.087676,0.365252,-0.071889,-0.953431,-0.648198,0.319383,-1.407180,0.993164,0.600754,4.049288,-0.425234,-4.030898
4.990000,1.067889,2.380692,1.375699,1.078072,0.358819,-0.068666,-0.967299,-0.638290,0.325186,-1.366476,0.988326,0.559713,4.091644,-0.541000,-4.175880
5.000000,1.078622,2.384249,1.375029,1.068332,0.352486,-0.065387,-0.980759,-0.628435,0.330572,-1.325344,0.982370,0.517264,4.134887,-0.648819,-4.312556
5.010000,1.089256,2.387742,1.374391,1.058458,0.346250,-0.062056,-0.993805,-0.618646,0.335527,-1.283771,0.975353,0.473443,4.178726,-0.748243,-4.439032
5.020000,1.099790,2.391174,1.373788,1.048457,0.340112,-0.058678,-1.006433,-0.608931,0.340037,-1.241762,0.967406,0.428460,4.223137,-0.840029,-4.556031
5.030000,1.110224,2.394545,1.373218,1.038331,0.334071,-0.055257,-1.018638,-0.599301,0.344092,-1.199307,0.958578,0.382356,4.267972,-0.924364,-4.663044
5.040000,1.120557,2.397856,1.372683,1.028086,0.328126,-0.051797,-1.030417,-0.589762,0.347681,-1.156401,0.948943,0.335234,4.313079,-1.001437,-4.759561
5.050000,1.130786,2.401108,1.372182,1.017724,0.322276,-0.048305,-1.041765,-0.580324,0.350794,-1.113045,0.938572,0.287201,4.358311,-1.071437,-4.845073
5.060000,1.140911,2.404301,1.371717,1.007252,0.316519,-0.044783,-1.052676,-0.570993,0.353421,-1.069219,0.927527,0.238300,4.403096,-1.134310,-4.917293
5.070000,1.150930,2.407438,1.371287,0.996672,0.310856,-0.041238,-1.063148,-0.561776,0.355558,-1.024964,0.915898,0.188815,4.447759,-1.190516,-4.977706
5.080000,1.160844,2.410519,1.370892,0.985990,0.305283,-0.037674,-1.073174,-0.552677,0.357196,-0.980264,0.903738,0.138787,4.492199,-1.240273,-5.026018
5.090000,1.170650,2.413544,1.370533,0.975210,0.299802,-0.034096,-1.082751,-0.543703,0.358332,-0.935121,0.891113,0.088336,4.536321,-1.283800,-5.061938
5.100000,1.180348,2.416515,1.370210,0.964337,0.294409,-0.030509,-1.091875,-0.534856,0.358962,-0.889539,0.878082,0.037590,4.580025,-1.321314,-5.085173
5.110000,1.189936,2.419433,1.369923,0.953374,0.289104,-0.026918,-1.100541,-0.526142,0.359082,-0.843501,0.864706,-0.013407,4.622671,-1.353029,-5.093329
5.120000,1.199415,2.422298,1.369672,0.942328,0.283886,-0.023329,-1.108744,-0.517563,0.358694,-0.797063,0.851040,-0.064327,4.664771,-1.379167,-5.088473
5.130000,1.208783,2.425111,1.369456,0.931201,0.278752,-0.019746,-1.116480,-0.509122,0.357796,-0.750208,0.837140,-0.115133,4.706292,-1.399949,-5.070569
5.140000,1.218039,2.427873,1.369277,0.919999,0.273703,-0.016174,-1.123747,-0.500821,0.356392,-0.702940,0.823058,-0.165695,4.747204,-1.415594,-5.039583
5.150000,1.227182,2.430585,1.369133,0.908728,0.268735,-0.012620,-1.130538,-0.492661,0.354483,-0.655266,0.808845,-0.215881,4.787474,-1.426319,-4.995480
5.160000,1.236213,2.433248,1.369024,0.897390,0.263849,-0.009086,-1.136850,-0.484644,0.352075,-0.607175,0.794552,-0.265647,4.826625,-1.432464,-4.936044
5.170000,1.245130,2.435862,1.368951,0.885992,0.259042,-0.005580,-1.142680,-0.476770,0.349173,-0.558715,0.780216,-0.314656,4.865127,-1.434114,-4.863688
5.180000,1.253933,2.438429,1.368913,0.874538,0.254313,-0.002105,-1.148023,-0.469040,0.345784,-0.509874,0.765884,-0.362878,4.903003,-1.431472,-4.778644
5.190000,1.262621,2.440949,1.368909,0.863033,0.249661,0.001334,-1.152876,-0.461453,0.341918,-0.460657,0.751600,-0.410187,4.940276,-1.424742,-4.681143
5.200000,1.271193,2.443422,1.368939,0.851482,0.245084,0.004732,-1.157235,-0.454008,0.337584,-0.411071,0.737402,-0.456460,4.976971,-1.414129,-4.571419
5.210000,1.279650,2.445851,1.369003,0.839890,0.240580,0.008084,-1.161096,-0.446704,0.332792,-0.361114,0.723335,-0.501655,5.012969,-1.399979,-4.447700
5.220000,1.287991,2.448234,1.369101,0.828262,0.236149,0.011387,-1.164456,-0.439540,0.327555,-0.310807,0.709421,-0.545465,5.048453,-1.382336,-4.312465
5.230000,1.296215,2.450574,1.369231,0.816603,0.231789,0.014634,-1.167311,-0.432515,0.321887,-0.260147,0.695700,-0.587868,5.083462,-1.361388,-4.166194
5.240000,1.304323,2.452870,1.369393,0.804918,0.227498,0.017823,-1.169658,-0.425626,0.315803,-0.209139,0.682204,-0.628754,5.118037,-1.337320,-4.009362
5.250000,1.312313,2.455124,1.369587,0.793211,0.223276,0.020949,-1.171493,-0.418870,0.309318,-0.157787,0.668963,-0.668021,5.152219,-1.310319,-3.842448
5.260000,1.320187,2.457336,1.369812,0.781490,0.219120,0.024008,-1.172813,-0.412245,0.302448,-0.106108,0.656010,-0.705634,5.186374,-1.280658,-3.664345
5.270000,1.327943,2.459507,1.370067,0.769757,0.215031,0.026997,-1.173614,-0.405749,0.295211,-0.054075,0.643362,-0.741349,5.220177,-1.248427,-3.477308
5.280000,1.335582,2.461637,1.370352,0.758019,0.211005,0.029911,-1.173893,-0.399377,0.287627,-0.001706,0.631049,-0.775152,5.253629,-1.213802,-3.282007
5.290000,1.343104,2.463727,1.370665,0.746281,0.207043,0.032748,-1.173647,-0.393127,0.279715,0.050996,0.619094,-0.806964,5.286731,-1.176960,-3.079116
5.300000,1.350508,2.465778,1.371006,0.734548,0.203142,0.035504,-1.172872,-0.386994,0.271495,0.104027,0.607517,-0.836712,5.319483,-1.138076,-2.869303
5.310000,1.357795,2.467790,1.371375,0.722825,0.199302,0.038177,-1.171566,-0.380975,0.262987,0.157351,0.596338,-0.864367,5.352734,-1.097321,-2.652278
5.320000,1.364964,2.469764,1.371770,0.711118,0.195522,0.040763,-1.169724,-0.375066,0.254214,0.211043,0.585576,-0.889782,5.385532,-1.054878,-2.429793
5.330000,1.372017,2.471701,1.372190,0.699432,0.191801,0.043260,-1.167344,-0.369262,0.245199,0.265060,0.575246,-0.912948,5.417776,-1.010922,-2.202638
5.340000,1.378953,2.473600,1.372634,0.687773,0.188137,0.045666,-1.164422,-0.363559,0.235963,0.319396,0.565362,-0.933822,5.449362,-0.965631,-1.971600
5.350000,1.385773,2.475464,1.373103,0.676146,0.184529,0.047979,-1.160955,-0.357953,0.226530,0.374044,0.555937,-0.952369,5.480186,-0.919182,-1.737470
5.360000,1.392476,2.477291,1.373594,0.664556,0.180977,0.050196,-1.156941,-0.352439,0.216924,0.428945,0.546978,-0.968572,5.511455,-0.871665,-1.500824
5.370000,1.399064,2.479083,1.374106,0.653009,0.177480,0.052317,-1.152375,-0.347012,0.207167,0.484211,0.538502,-0.982390,5.541597,-0.823353,-1.262689
5.380000,1.405536,2.480841,1.374640,0.641510,0.174037,0.054339,-1.147255,-0.341667,0.197284,0.539772,0.530513,-0.993823,5.570347,-0.774433,-1.023882
5.390000,1.411894,2.482564,1.375193,0.630066,0.170647,0.056262,-1.141579,-0.336400,0.187298,0.595613,0.523015,-1.002868,5.597443,-0.725093,-0.785216
5.400000,1.418138,2.484254,1.375765,0.618681,0.167309,0.058085,-1.135342,-0.331205,0.177234,0.651715,0.516012,-1.009531,5.622620,-0.675520,-0.547508
5.410000,1.424268,2.485911,1.376354,0.607361,0.164022,0.059807,-1.128544,-0.326078,0.167116,0.707994,0.509500,-1.013802,5.647215,-0.625775,-0.312142
5.420000,1.430285,2.487535,1.376960,0.596112,0.160787,0.061427,-1.121182,-0.321014,0.156966,0.764579,0.503490,-1.015757,5.669169,-0.576187,-0.079293
5.430000,1.436191,2.489127,1.377582,0.584939,0.157602,0.062946,-1.113252,-0.316007,0.146808,0.821367,0.497975,-1.015399,5.688022,-0.526958,0.150292
5.440000,1.441984,2.490687,1.378219,0.573848,0.154466,0.064364,-1.104754,-0.311053,0.136666,0.878327,0.492949,-1.012764,5.703315,-0.478291,0.375870
5.450000,1.447668,2.492216,1.378869,0.562846,0.151381,0.065680,-1.095685,-0.306146,0.126561,0.935420,0.488407,-1.007897,5.714588,-0.430387,0.596693
5.460000,1.453242,2.493715,1.379532,0.551937,0.148343,0.066895,-1.086046,-0.301283,0.116516,0.992539,0.484334,-1.000798,5.723023,-0.383346,0.810749
5.470000,1.458707,2.495183,1.380207,0.541127,0.145355,0.068010,-1.075834,-0.296458,0.106552,1.049790,0.480731,-0.991646,5.726317,-0.337487,1.018717
5.480000,1.464065,2.496622,1.380892,0.530422,0.142414,0.069026,-1.065050,-0.291667,0.096689,1.107046,0.477580,-0.980446,5.723811,-0.293024,1.220005
5.490000,1.469316,2.498032,1.381587,0.519828,0.139521,0.069944,-1.053693,-0.286905,0.086949,1.164245,0.474865,-0.967270,5.714844,-0.250173,1.414024
5.500000,1.474461,2.499412,1.382291,0.509350,0.136676,0.070766,-1.041765,-0.282168,0.077350,1.221319,0.472570,-0.952192,5.698754,-0.209150,1.600183
5.510000,1.479503,2.500765,1.383002,0.498994,0.133878,0.071492,-1.029268,-0.277452,0.067912,1.278138,0.470675,-0.935224,5.676303,-0.170147,1.776122
5.520000,1.484442,2.502090,1.383720,0.488766,0.131127,0.072125,-1.016203,-0.272753,0.058652,1.334753,0.469159,-0.916620,5.645235,-0.133404,1.943239
5.530000,1.489279,2.503388,1.384444,0.478672,0.128423,0.072666,-1.002574,-0.268068,0.049585,1.391011,0.467998,-0.896390,5.604715,-0.099139,2.101160
5.540000,1.494016,2.504659,1.385173,0.468717,0.125765,0.073117,-0.988385,-0.263392,0.040729,1.446813,0.467167,-0.874629,5.553909,-0.067569,2.249512
5.550000,1.498654,2.505903,1.385906,0.458906,0.123155,0.073481,-0.973640,-0.258724,0.032097,1.502052,0.466637,-0.851433,5.491981,-0.038913,2.387922
5.560000,1.503194,2.507122,1.386643,0.449246,0.120591,0.073760,-0.958346,-0.254059,0.023705,1.556577,0.466341,-0.826832,5.418999,-0.012442,2.514169
5.570000,1.507639,2.508315,1.387381,0.439741,0.118074,0.073956,-0.942511,-0.249396,0.015565,1.610349,0.466335,-0.801102,5.333117,0.010564,2.629953
5.580000,1.511990,2.509484,1.388121,0.430397,0.115603,0.074072,-0.926142,-0.244732,0.007687,1.663193,0.466540,-0.774268,5.233389,0.029773,2.735128
5.590000,1.516248,2.510628,1.388862,0.421220,0.113179,0.074110,-0.909251,-0.240065,0.000083,1.714967,0.466916,-0.746435,5.118870,0.044851,2.829547
5.600000,1.520415,2.511747,1.389603,0.412214,0.110802,0.074074,-0.891847,-0.235393,-0.007239,1.765518,0.467422,-0.717713,4.988617,0.055464,2.913062
5.610000,1.524492,2.512844,1.390344,0.403385,0.108471,0.073967,-0.873945,-0.230714,-0.014268,1.814655,0.468212,-0.688107,4.842424,0.056157,2.982888
5.620000,1.528483,2.513917,1.391083,0.394737,0.106187,0.073790,-0.855559,-0.226029,-0.020999,1.862275,0.468759,-0.657974,4.678515,0.052347,3.041839
5.630000,1.532388,2.514968,1.391819,0.386275,0.103951,0.073548,-0.836706,-0.221339,-0.027425,1.908163,0.469245,-0.627306,4.495855,0.044326,3.090092
5.640000,1.536209,2.515996,1.392553,0.378004,0.101761,0.073243,-0.817402,-0.216644,-0.033543,1.952126,0.469632,-0.596207,4.293408,0.032390,3.127823
5.650000,1.539949,2.517003,1.393284,0.369929,0.099618,0.072878,-0.797670,-0.211946,-0.039348,1.993961,0.469881,-0.564784,4.070137,0.016832,3.155206
5.660000,1.543608,2.517989,1.394011,0.362052,0.097522,0.072457,-0.777531,-0.207250,-0.044838,2.033482,0.469656,-0.533128,3.824337,0.005565,3.172191
5.670000,1.547190,2.518954,1.394733,0.354379,0.095473,0.071982,-0.757009,-0.202554,-0.050011,2.070402,0.469639,-0.501363,3.555725,-0.009670,3.179210
5.680000,1.550697,2.519898,1.395450,0.346913,0.093471,0.071457,-0.736132,-0.197858,-0.054865,2.104518,0.469447,-0.469576,3.263347,-0.029510,3.176465
5.690000,1.554129,2.520823,1.396162,0.339658,0.091516,0.070886,-0.714929,-0.193166,-0.059402,2.135587,0.469031,-0.437865,2.946250,-0.054594,3.164161
5.700000,1.557490,2.521729,1.396868,0.332616,0.089607,0.070271,-0.693431,-0.188479,-0.063623,2.163357,0.468336,-0.406324,2.603480,-0.085561,3.142501
5.710000,1.560782,2.522615,1.397567,0.325790,0.087746,0.069614,-0.671674,-0.183797,-0.067529,2.187567,0.467536,-0.374978,2.234096,-0.129045,3.109974
5.720000,1.564007,2.523484,1.398260,0.319183,0.085931,0.068921,-0.649693,-0.179129,-0.071124,2.207946,0.466001,-0.344077,1.837131,-0.178956,3.068709
5.730000,1.567167,2.524334,1.398945,0.312797,0.084163,0.068193,-0.627528,-0.174479,-0.074412,2.224214,0.463936,-0.313632,1.411630,-0.235198,3.019119
5.740000,1.570264,2.525167,1.399624,0.306633,0.082442,0.067434,-0.605223,-0.169853,-0.077398,2.236081,0.461276,-0.283721,0.956636,-0.297676,2.961620
5.750000,1.573300,2.525983,1.400294,0.300693,0.080766,0.066646,-0.582822,-0.165256,-0.080089,2.243246,0.457962,-0.254424,0.471196,-0.366295,2.896623
5.760000,1.576278,2.526783,1.400956,0.294977,0.079136,0.065833,-0.560375,-0.160692,-0.082489,2.245376,0.454264,-0.225769,-0.045048,-0.449385,2.823442
5.770000,1.579200,2.527566,1.401611,0.289485,0.077552,0.064997,-0.537933,-0.156173,-0.084607,2.242210,0.449334,-0.197928,-0.593722,-0.537393,2.743727
5.780000,1.582069,2.528334,1.402256,0.284218,0.076013,0.064142,-0.515550,-0.151709,-0.086450,2.233390,0.443503,-0.170914,-1.175855,-0.629194,2.658026
5.790000,1.584885,2.529087,1.402893,0.279174,0.074518,0.063269,-0.493285,-0.147306,-0.088028,2.218578,0.436741,-0.144785,-1.792475,-0.723661,2.566889
5.800000,1.587653,2.529824,1.403522,0.274351,0.073066,0.062382,-0.471199,-0.142977,-0.089349,2.197422,0.429025,-0.119593,-2.444612,-0.819666,2.470865
5.810000,1.590373,2.530548,1.404141,0.269749,0.071658,0.061483,-0.449360,-0.138728,-0.090424,2.169482,0.420456,-0.095441,-3.131240,-0.918849,2.371985
5.820000,1.593049,2.531258,1.404751,0.265363,0.070291,0.060574,-0.427833,-0.134571,-0.091261,2.134580,0.410775,-0.072233,-3.855693,-1.016978,2.269133
5.830000,1.595681,2.531954,1.405352,0.261191,0.068966,0.059658,-0.406693,-0.130516,-0.091872,2.092238,0.400124,-0.050071,-4.619251,-1.112588,2.162676
5.840000,1.598273,2.532637,1.405944,0.257228,0.067681,0.058738,-0.386015,-0.126572,-0.092266,2.042060,0.388537,-0.028990,-5.423192,-1.204214,2.052983
5.850000,1.600826,2.533308,1.406527,0.253469,0.066434,0.057814,-0.365879,-0.122748,-0.092455,1.983636,0.376058,-0.009021,-6.268798,-1.290389,1.940421
5.860000,1.603343,2.533966,1.407101,0.249908,0.065225,0.056889,-0.346371,-0.119053,-0.092450,1.916541,0.362752,0.009810,-7.157348,-1.369649,1.825355
5.870000,1.605825,2.534612,1.407665,0.246539,0.064053,0.055965,-0.327579,-0.115495,-0.092263,1.840341,0.348693,0.027479,-8.090122,-1.440528,1.708155
5.880000,1.608275,2.535247,1.408220,0.243354,0.062915,0.055044,-0.309596,-0.112082,-0.091905,1.754587,0.333974,0.043967,-9.068400,-1.501561,1.589187
5.890000,1.610693,2.535871,1.408766,0.240344,0.061811,0.054128,-0.292520,-0.108818,-0.091387,1.658817,0.318700,0.059258,-10.093462,-1.551281,1.468818
5.900000,1.613082,2.536483,1.409303,0.237500,0.060738,0.053217,-0.276454,-0.105709,-0.090723,1.552558,0.302991,0.073340,-11.166587,-1.588224,1.347417
5.910000,1.615443,2.537086,1.409830,0.234811,0.059696,0.052314,-0.261506,-0.102759,-0.089925,1.435321,0.286983,0.086205,-12.289056,-1.610924,1.225349
5.920000,1.617779,2.537677,1.410349,0.232266,0.058682,0.051419,-0.247786,-0.099970,-0.089003,1.306608,0.270825,0.097846,-13.462149,-1.617915,1.102982
5.930000,1.620089,2.538259,1.410859,0.229851,0.057696,0.050534,-0.235413,-0.097342,-0.087972,1.165905,0.254682,0.108264,-14.687145,-1.607733,0.980684
5.940000,1.622376,2.538831,1.411360,0.227553,0.056735,0.049660,-0.224510,-0.094876,-0.086842,1.012688,0.238732,0.117461,-15.965324,-1.578911,0.858821
5.950000,1.624641,2.539394,1.411852,0.225356,0.055798,0.048798,-0.215203,-0.092567,-0.085627,0.846417,0.223171,0.125444,-17.297966,-1.529984,0.737762
5.960000,1.626883,2.539948,1.412336,0.223243,0.054883,0.047948,-0.207627,-0.090410,-0.084337,0.666542,0.208205,0.132221,-18.686352,-1.459487,0.617873
5.970000,1.629106,2.540492,1.412811,0.221197,0.053989,0.047111,-0.201920,-0.088400,-0.082986,0.472500,0.194058,0.137806,-20.131760,-1.365953,0.499522
5.980000,1.631308,2.541027,1.413278,0.219198,0.053115,0.046288,-0.198226,-0.086526,-0.081585,0.263713,0.180967,0.142217,-21.635471,-1.247919,0.383075
5.990000,1.633490,2.541554,1.413737,0.217225,0.052258,0.045479,-0.196696,-0.084776,-0.080146,0.039592,0.169186,0.145475,-23.198766,-1.103917,0.268901
6.000000,1.635652,2.542073,1.414188,0.215256,0.051419,0.044685,-0.197487,-0.083137,-0.078679,-0.200465,0.158980,0.147604,-24.822922,-0.932483,0.157366
