time,x,y,z,vx,vy,vz,ax,ay,az,jx,jy,jz,sx,sy,sz,roll,pitch,yaw,p,q,r
0.000000,-2.598522,-2.375441,-1.359447,-0.016323,0.008927,-0.021652,0.329896,-0.085898,0.049952,-8.813296,-0.913841,-0.077129,204.385733,147.940258,-35.159987,-0.008796,-0.033788,0.000000,-0.093769,0.902199,0.000000
0.010000,-2.598670,-2.375356,-1.359661,-0.013432,0.008046,-0.021162,0.251528,-0.087937,0.047480,-6.904778,0.476666,-0.411502,177.723543,130.391654,-31.733850,-0.009004,-0.025759,0.000000,0.049021,0.707862,0.000000
0.020000,-2.598793,-2.375280,-1.359871,-0.011233,0.007211,-0.020713,0.190952,-0.076926,0.041834,-5.250898,1.698505,-0.712191,153.439421,114.196720,-28.423098,-0.007874,-0.019546,0.000000,0.174329,0.538755,-0.000000
0.030000,-2.598896,-2.375212,-1.360076,-0.009562,0.006545,-0.020335,0.145739,-0.054485,0.033345,-3.828434,2.764915,-0.980349,131.421887,99.296004,-25.227679,-0.005572,-0.014906,0.000000,0.283294,0.392991,-0.000000
0.040000,-2.598985,-2.375148,-1.360278,-0.008275,0.006155,-0.020054,0.113686,-0.022104,0.022331,-2.615277,3.688541,-1.217129,111.559461,85.630055,-22.147541,-0.002258,-0.011615,0.000000,0.377102,0.268609,0.000000
0.050000,-2.599063,-2.375087,-1.360477,-0.007251,0.006132,-0.019896,0.092806,0.018850,0.009103,-1.590433,4.481433,-1.423684,93.740661,73.139418,-19.182633,0.001923,-0.009469,0.000000,0.456949,0.163635,-0.000000
0.060000,-2.599131,-2.375024,-1.360676,-0.006387,0.006556,-0.019879,0.081316,0.067127,-0.006045,-0.734023,5.155049,-1.601165,77.854009,61.764643,-16.332902,0.006838,-0.008284,0.000000,0.524012,0.076122,0.000000
0.070000,-2.599191,-2.374954,-1.360875,-0.005598,0.007495,-0.020022,0.077626,0.121590,-0.022828,-0.027284,5.720248,-1.750725,63.788022,51.446278,-13.598297,0.012365,-0.007894,0.000000,0.579442,0.004180,0.000000
0.080000,-2.599243,-2.374872,-1.361077,-0.004813,0.009005,-0.020340,0.080330,0.181205,-0.040971,0.547435,6.187297,-1.873515,51.431221,42.124869,-10.978767,0.018392,-0.008154,0.000000,0.624352,-0.054008,-0.000000
0.090000,-2.599287,-2.374772,-1.361283,-0.003975,0.011133,-0.020845,0.088190,0.245041,-0.060212,1.006666,6.565870,-1.970684,40.672125,33.740964,-8.474260,0.024820,-0.008935,0.000000,0.659809,-0.100168,-0.000000
0.100000,-2.599322,-2.374648,-1.361495,-0.003036,0.013917,-0.021547,0.100130,0.312258,-0.080303,1.365831,6.865043,-2.043383,31.399254,26.235113,-6.084725,0.031560,-0.010124,0.000000,0.686832,-0.135925,0.000000
0.110000,-2.599347,-2.374492,-1.361714,-0.001962,0.017387,-0.022453,0.115221,0.382105,-0.101002,1.639234,7.093301,-2.092762,23.501127,19.547861,-3.810108,0.038532,-0.011625,0.000000,0.706388,-0.162798,0.000000
0.120000,-2.599361,-2.374298,-1.361944,-0.000724,0.021566,-0.023568,0.132673,0.453914,-0.122084,1.840065,7.258531,-2.119968,16.866264,13.619758,-1.650360,0.045666,-0.013357,0.000000,0.719384,-0.182191,-0.000000
0.130000,-2.599361,-2.374058,-1.362187,0.000697,0.026470,-0.024895,0.151821,0.527090,-0.143332,1.980398,7.368028,-2.126152,11.383184,8.391350,0.394572,0.052901,-0.015252,0.000000,0.726665,-0.195391,0.000000
0.140000,-2.599346,-2.373766,-1.362443,0.002316,0.032111,-0.026435,0.172116,0.601111,-0.164541,2.071196,7.428492,-2.112459,6.940406,3.803186,2.324739,0.060183,-0.017254,0.000000,0.729014,-0.203564,-0.000000
0.150000,-2.599314,-2.373413,-1.362716,0.004142,0.038494,-0.028185,0.193113,0.675517,-0.185518,2.122303,7.446028,-2.080039,3.426451,-0.204187,4.140193,0.067467,-0.019318,0.000000,0.727145,-0.207754,0.000000
0.160000,-2.599263,-2.372993,-1.363007,0.006180,0.045621,-0.030144,0.214459,0.749907,-0.206083,2.142449,7.426146,-2.030038,0.729838,-3.690221,5.840985,0.074714,-0.021408,0.000000,0.721702,-0.208881,0.000000
0.170000,-2.599190,-2.372498,-1.363320,0.008432,0.053490,-0.032305,0.235884,0.823932,-0.226064,2.139252,7.373763,-1.963602,-1.260915,-6.714368,7.427168,0.081891,-0.023499,0.000000,0.713259,-0.207744,0.000000
0.180000,-2.599093,-2.371921,-1.363654,0.010897,0.062097,-0.034663,0.257188,0.897288,-0.245304,2.119212,7.293200,-1.881876,-2.657286,-9.336081,8.898793,0.088971,-0.025572,0.000000,0.702318,-0.205020,0.000000
0.190000,-2.598971,-2.371254,-1.364013,0.013574,0.071433,-0.037208,0.278230,0.969714,-0.263655,2.087716,7.188185,-1.786007,-3.570757,-11.614811,10.255911,0.095930,-0.027613,0.000000,0.689310,-0.201264,-0.000000
0.200000,-2.598821,-2.370490,-1.364399,0.016461,0.081488,-0.039932,0.298918,1.040981,-0.280981,2.049035,7.061849,-1.677140,-4.112809,-13.610010,11.498575,0.102751,-0.029614,0.000000,0.674596,-0.196915,0.000000
0.210000,-2.598641,-2.369622,-1.364813,0.019544,0.092244,-0.042824,0.319467,1.111036,-0.297159,2.031152,6.930267,-1.556516,-5.021968,-15.722995,12.629329,0.109432,-0.031597,0.000000,0.659772,-0.194727,0.000000
0.220000,-2.598430,-2.368643,-1.365256,0.022840,0.103698,-0.045871,0.339515,1.179519,-0.312075,1.977340,6.763339,-1.425047,-5.705887,-17.629494,13.645427,0.115942,-0.033529,0.000000,0.641954,-0.189134,-0.000000
0.230000,-2.598184,-2.367546,-1.365730,0.026333,0.115829,-0.049061,0.358994,1.246242,-0.325628,1.917670,6.578306,-1.283990,-6.199265,-19.347097,14.546614,0.122267,-0.035404,0.000000,0.622847,-0.183105,0.000000
0.240000,-2.597902,-2.366324,-1.366238,0.030017,0.128617,-0.052379,0.377855,1.311031,-0.337727,1.853874,6.376968,-1.134498,-6.536802,-20.893397,15.332636,0.128395,-0.037218,0.000000,0.602643,-0.176811,-0.000000
0.250000,-2.597583,-2.364971,-1.366778,0.033888,0.142042,-0.055810,0.396063,1.373732,-0.348294,1.787338,6.160951,-0.977722,-6.753196,-22.285985,16.003240,0.134316,-0.038969,0.000000,0.581504,-0.170386,-0.000000
0.260000,-2.597224,-2.363481,-1.367354,0.037934,0.156083,-0.059340,0.413680,1.434243,-0.357255,1.726900,5.935059,-0.814287,-7.080205,-23.627217,16.544738,0.140026,-0.040665,0.000000,0.559895,-0.164687,-0.000000
0.270000,-2.596824,-2.361848,-1.367966,0.042156,0.170718,-0.062950,0.430591,1.492391,-0.364563,1.654784,5.692620,-0.646609,-7.331339,-24.839541,16.971956,0.145512,-0.042295,0.000000,0.537155,-0.157976,0.000000
0.280000,-2.596380,-2.360065,-1.368613,0.046544,0.185923,-0.066625,0.446769,1.548057,-0.370175,1.580491,5.438673,-0.475224,-7.517170,-25.930167,17.286283,0.150767,-0.043858,0.000000,0.513759,-0.151174,0.000000
0.290000,-2.595892,-2.358127,-1.369298,0.051089,0.201671,-0.070348,0.462196,1.601130,-0.374059,1.504623,5.174399,-0.301255,-7.648267,-26.906309,17.489111,0.155785,-0.045353,0.000000,0.489796,-0.144330,0.000000
0.300000,-2.595358,-2.356030,-1.370020,0.055785,0.217936,-0.074101,0.476858,1.651514,-0.376195,1.427673,4.900905,-0.125809,-7.735200,-27.775178,17.581830,0.160561,-0.046780,0.000000,0.465344,-0.137483,0.000000
0.310000,-2.594776,-2.353767,-1.370780,0.060623,0.234691,-0.077866,0.490772,1.699131,-0.376566,1.352393,4.620198,0.050806,-7.848200,-28.568480,17.545965,0.165092,-0.048141,0.000000,0.440569,-0.130890,-0.000000
0.320000,-2.594145,-2.351334,-1.371578,0.065597,0.251909,-0.081626,0.503902,1.743893,-0.375182,1.273474,4.330948,0.225648,-7.930869,-29.265935,17.405207,0.169371,-0.049434,0.000000,0.415281,-0.124020,0.000000
0.330000,-2.593464,-2.348727,-1.372413,0.070698,0.269560,-0.085364,0.516240,1.785729,-0.372059,1.193866,4.035185,0.398573,-7.986472,-29.871753,17.163379,0.173396,-0.050658,0.000000,0.389641,-0.117147,0.000000
0.340000,-2.592731,-2.345942,-1.373285,0.075919,0.287614,-0.089062,0.527778,1.824578,-0.367220,1.113823,3.733805,0.568591,-8.018273,-30.390148,16.824305,0.177163,-0.051812,0.000000,0.363691,-0.110285,-0.000000
0.350000,-2.591945,-2.342974,-1.374194,0.081251,0.306041,-0.092703,0.538515,1.860389,-0.360700,1.033569,3.427660,0.734748,-8.029535,-30.825332,16.391809,0.180669,-0.052898,0.000000,0.337461,-0.103441,-0.000000
0.360000,-2.591105,-2.339820,-1.375139,0.086686,0.324811,-0.096271,0.548457,1.893123,-0.352534,0.954001,3.118041,0.896835,-8.041469,-31.193643,15.851882,0.183912,-0.053916,0.000000,0.311037,-0.096692,-0.000000
0.370000,-2.590211,-2.336477,-1.376119,0.092217,0.343893,-0.099748,0.557595,1.922739,-0.342783,0.873594,2.804582,1.052303,-8.037195,-31.485683,15.228363,0.186889,-0.054865,0.000000,0.284305,-0.089869,-0.000000
0.380000,-2.589261,-2.332941,-1.377133,0.097836,0.363255,-0.103121,0.565930,1.949206,-0.331510,0.793307,2.488573,1.201143,-8.017781,-31.704181,14.527262,0.189597,-0.055745,0.000000,0.257349,-0.083054,0.000000
0.390000,-2.588254,-2.329211,-1.378181,0.103533,0.382866,-0.106374,0.573462,1.972504,-0.318785,0.713286,2.170735,1.342610,-7.984295,-31.851865,13.754585,0.192035,-0.056557,0.000000,0.230186,-0.076250,0.000000
0.400000,-2.587190,-2.325283,-1.379260,0.109302,0.402695,-0.109492,0.580197,1.992617,-0.304684,0.633665,1.851762,1.476016,-7.937802,-31.931463,12.916339,0.194200,-0.057299,0.000000,0.202832,-0.069455,0.000000
0.410000,-2.586068,-2.321156,-1.380370,0.115135,0.422708,-0.112463,0.586140,2.009541,-0.289289,0.554788,1.532611,1.601155,-7.884900,-31.952967,12.007990,0.196092,-0.057973,0.000000,0.175337,-0.062695,0.000000
0.420000,-2.584887,-2.316828,-1.381509,0.121022,0.442875,-0.115274,0.591294,2.023270,-0.272693,0.476252,1.213239,1.716473,-7.820449,-31.910950,11.047378,0.197707,-0.058577,0.000000,0.147631,-0.055911,-0.000000
0.430000,-2.583647,-2.312298,-1.382675,0.126958,0.463163,-0.117913,0.595667,2.033808,-0.254992,0.398417,0.894597,1.821953,-7.744838,-31.807253,10.041803,0.199044,-0.059113,0.000000,0.119769,-0.049132,-0.000000
0.440000,-2.582348,-2.307565,-1.383867,0.132933,0.483540,-0.120371,0.599265,2.041166,-0.236288,0.321391,0.577294,1.917183,-7.658457,-31.643713,8.998564,0.200101,-0.059580,0.000000,0.091768,-0.042358,0.000000
0.450000,-2.580988,-2.302627,-1.385082,0.138941,0.503976,-0.122636,0.602098,2.045360,-0.216684,0.245282,0.261917,2.001823,-7.561694,-31.422168,7.924959,0.200879,-0.059978,0.000000,0.063646,-0.035590,-0.000000
0.460000,-2.579569,-2.297485,-1.386319,0.144973,0.524437,-0.124702,0.604175,2.046414,-0.196287,0.170248,-0.050869,2.075652,-7.456397,-31.146815,6.827112,0.201374,-0.060306,0.000000,0.035432,-0.028837,0.000000
0.470000,-2.578089,-2.292139,-1.387575,0.151022,0.544894,-0.126560,0.605507,2.044353,-0.175207,0.096252,-0.360732,2.138366,-7.341320,-30.816845,5.713640,0.201587,-0.060566,0.000000,0.007127,-0.022086,-0.000000
0.480000,-2.576548,-2.286587,-1.388849,0.157080,0.565314,-0.128204,0.606104,2.039211,-0.153557,0.023454,-0.667029,2.189898,-7.216674,-30.433809,4.591987,0.201517,-0.060757,0.000000,-0.021231,-0.015349,-0.000000
0.490000,-2.574947,-2.280832,-1.390139,0.163141,0.585668,-0.129629,0.605980,2.031026,-0.131447,-0.048050,-0.969237,2.230203,-7.082671,-29.999256,3.469594,0.201162,-0.060880,0.000000,-0.049614,-0.008631,-0.000000
0.500000,-2.573285,-2.274874,-1.391441,0.169197,0.605924,-0.130832,0.605148,2.019842,-0.108990,-0.118169,-1.266848,2.259312,-6.939522,-29.514738,2.353905,0.200524,-0.060933,0.000000,-0.077988,-0.001936,0.000000
0.510000,-2.571563,-2.268714,-1.392754,0.175242,0.626055,-0.131808,0.603621,2.005705,-0.086301,-0.186818,-1.559439,2.277016,-6.787269,-28.980075,1.260234,0.199603,-0.060919,0.000000,-0.106329,0.004730,0.000000
0.520000,-2.569781,-2.262354,-1.394076,0.181268,0.646029,-0.132557,0.601417,1.988672,-0.063486,-0.253893,-1.846371,2.284234,-6.626313,-28.398756,0.187189,0.198398,-0.060837,0.000000,-0.134565,0.011352,0.000000
0.530000,-2.567938,-2.255794,-1.395405,0.187268,0.665819,-0.133078,0.598549,1.968798,-0.040652,-0.319316,-2.127264,2.280851,-6.456886,-27.772545,-0.858754,0.196912,-0.060688,0.000000,-0.162666,0.017926,0.000000
0.540000,-2.566035,-2.249038,-1.396737,0.193236,0.685396,-0.133371,0.595036,1.946148,-0.017903,-0.383003,-2.401678,2.267171,-6.279221,-27.103202,-1.871116,0.195145,-0.060472,0.000000,-0.190585,0.024440,0.000000
0.550000,-2.564073,-2.242087,-1.398072,0.199167,0.704732,-0.133437,0.590895,1.920788,0.004659,-0.444874,-2.669190,2.243562,-6.093549,-26.392489,-2.843419,0.193101,-0.060190,0.000000,-0.218268,0.030883,-0.000000
0.560000,-2.562052,-2.234944,-1.399405,0.205052,0.723803,-0.133278,0.586145,1.892787,0.026930,-0.504877,-2.929528,2.209863,-5.899386,-25.638836,-3.754164,0.190781,-0.059843,0.000000,-0.245685,0.037249,-0.000000
0.570000,-2.559972,-2.227612,-1.400736,0.210888,0.742580,-0.132899,0.580804,1.862223,0.048826,-0.562868,-3.181991,2.167979,-5.697769,-24.847743,-4.613732,0.188188,-0.059431,0.000000,-0.272719,0.043510,-0.000000
0.580000,-2.557835,-2.220094,-1.402063,0.216667,0.761039,-0.132303,0.574894,1.829174,0.070262,-0.618808,-3.426365,2.117774,-5.489016,-24.021382,-5.417483,0.185328,-0.058957,0.000000,-0.299336,0.049659,-0.000000
0.590000,-2.555639,-2.212393,-1.403382,0.222384,0.779155,-0.131496,0.568435,1.793724,0.091156,-0.672626,-3.662308,2.059830,-5.273446,-23.161921,-6.160778,0.182203,-0.058421,0.000000,-0.325474,0.055681,-0.000000
0.600000,-2.553387,-2.204512,-1.404692,0.228034,0.796906,-0.130482,0.561449,1.755957,0.111435,-0.724255,-3.889500,1.994776,-5.051380,-22.271530,-6.838976,0.178820,-0.057825,0.000000,-0.351068,0.061563,-0.000000
0.610000,-2.551079,-2.196456,-1.405991,0.233611,0.814267,-0.129269,0.553957,1.715963,0.131022,-0.773653,-4.107724,1.922516,-4.822626,-21.350342,-7.428053,0.175184,-0.057171,0.000000,-0.376072,0.067293,0.000000
0.620000,-2.548715,-2.188228,-1.407276,0.239111,0.831218,-0.127864,0.545983,1.673834,0.149867,-0.820711,-4.316510,1.845589,-4.588078,-20.402813,-7.945129,0.171301,-0.056459,0.000000,-0.400369,0.072842,-0.000000
0.630000,-2.546297,-2.179833,-1.408547,0.244529,0.847737,-0.126274,0.537551,1.629665,0.167917,-0.865397,-4.515700,1.763861,-4.348117,-19.431362,-8.387938,0.167179,-0.055693,0.000000,-0.423917,0.078201,0.000000
0.640000,-2.543825,-2.171275,-1.409801,0.249861,0.863805,-0.124508,0.528684,1.583553,0.185130,-0.907657,-4.705066,1.678085,-4.103124,-18.438408,-8.754214,0.162825,-0.054874,0.000000,-0.446651,0.083354,-0.000000
0.650000,-2.541300,-2.162558,-1.411037,0.255101,0.879402,-0.122575,0.519406,1.535597,0.201468,-0.947444,-4.884405,1.589039,-3.853482,-17.426369,-9.041693,0.158249,-0.054004,0.000000,-0.468505,0.088286,-0.000000
0.660000,-2.538723,-2.153688,-1.412252,0.260247,0.894511,-0.120482,0.509743,1.485899,0.216894,-0.984705,-5.053488,1.496700,-3.599751,-16.398931,-9.227359,0.153458,-0.053086,0.000000,-0.489427,0.092986,-0.000000
0.670000,-2.536095,-2.144670,-1.413446,0.265295,0.909114,-0.118239,0.499720,1.434562,0.231397,-1.019418,-5.212279,1.403835,-3.342113,-15.357091,-9.332236,0.148463,-0.052123,0.000000,-0.509337,0.097429,-0.000000
0.680000,-2.533418,-2.135508,-1.414617,0.270241,0.923197,-0.115857,0.489364,1.381688,0.244968,-1.051536,-5.360589,1.310324,-3.080929,-14.303115,-9.356600,0.143275,-0.051117,0.000000,-0.528191,0.101606,0.000000
0.690000,-2.530691,-2.126208,-1.415763,0.275081,0.936743,-0.113343,0.478698,1.327385,0.257604,-1.081026,-5.498308,1.216970,-2.816557,-13.239268,-9.300725,0.137903,-0.050071,0.000000,-0.545936,0.105505,0.000000
0.700000,-2.527916,-2.116775,-1.416883,0.279814,0.949740,-0.110708,0.467752,1.271758,0.269311,-1.107857,-5.625349,1.124576,-2.549359,-12.167813,-9.164887,0.132360,-0.048988,0.000000,-0.562526,0.109113,0.000000
0.710000,-2.525095,-2.107215,-1.417977,0.284435,0.962174,-0.107960,0.456551,1.214916,0.280093,-1.131967,-5.741451,1.033168,-2.280646,-11.095953,-8.929903,0.126657,-0.047871,0.000000,-0.577909,0.112419,0.000000
0.720000,-2.522228,-2.097533,-1.419042,0.288944,0.974035,-0.105109,0.445122,1.156965,0.289983,-1.153420,-5.847035,0.945366,-2.009710,-10.020410,-8.617888,0.120806,-0.046722,0.000000,-0.592073,0.115413,-0.000000
0.730000,-2.519317,-2.087736,-1.420078,0.293337,0.985310,-0.102163,0.433491,1.098011,0.299012,-1.172155,-5.941853,0.861058,-1.736795,-8.942843,-8.231499,0.114820,-0.045546,0.000000,-0.604976,0.118086,-0.000000
0.740000,-2.516362,-2.077829,-1.421085,0.297613,0.995992,-0.099131,0.421688,1.038164,0.307219,-1.188151,-6.025891,0.780975,-1.462145,-7.864911,-7.773396,0.108711,-0.044346,0.000000,-0.616594,0.120431,-0.000000
0.750000,-2.513365,-2.067818,-1.422061,0.301770,1.006071,-0.096021,0.409738,0.977529,0.314648,-1.201392,-6.099155,0.705820,-1.186002,-6.788273,-7.246235,0.102492,-0.043125,0.000000,-0.626910,0.122442,0.000000
0.760000,-2.510327,-2.057710,-1.423005,0.305808,1.015540,-0.092840,0.397670,0.916219,0.321347,-1.211807,-6.161375,0.635628,-0.910108,-5.721951,-6.636426,0.096177,-0.041885,0.000000,-0.635887,0.124108,-0.000000
0.770000,-2.507249,-2.047509,-1.423917,0.309724,1.024393,-0.089596,0.385511,0.854337,0.327382,-1.219524,-6.213278,0.572572,-0.633026,-4.659341,-5.964864,0.089779,-0.040632,0.000000,-0.643575,0.125436,0.000000
0.780000,-2.504133,-2.037224,-1.424797,0.313518,1.032625,-0.086295,0.373288,0.791989,0.332822,-1.224464,-6.254577,0.516521,-0.354815,-3.601202,-5.236197,0.083310,-0.039368,0.000000,-0.649950,0.126418,0.000000
0.790000,-2.500979,-2.026859,-1.425643,0.317189,1.040232,-0.082942,0.361031,0.729281,0.337738,-1.226617,-6.285319,0.468023,-0.075537,-2.548290,-4.455071,0.076784,-0.038096,0.000000,-0.655016,0.127052,-0.000000
0.800000,-2.497789,-2.016421,-1.426456,0.320738,1.047210,-0.079542,0.348765,0.666318,0.342209,-1.225971,-6.305562,0.427579,0.204750,-1.501364,-3.626135,0.070214,-0.036820,0.000000,-0.658785,0.127337,0.000000
0.810000,-2.494565,-2.005917,-1.427234,0.324165,1.053558,-0.076098,0.336521,0.603208,0.346313,-1.222461,-6.315080,0.395171,0.484535,-0.468493,-2.742069,0.063613,-0.035544,0.000000,-0.661243,0.127270,-0.000000
0.820000,-2.491306,-1.995352,-1.427977,0.327469,1.059274,-0.072616,0.324325,0.540051,0.350143,-1.216212,-6.314628,0.372327,0.765385,0.557772,-1.820951,0.056993,-0.034271,0.000000,-0.662476,0.126861,0.000000
0.830000,-2.488016,-1.984734,-1.428686,0.330651,1.064359,-0.069096,0.312206,0.476949,0.353790,-1.207149,-6.303946,0.358855,1.047418,1.577567,-0.868895,0.050368,-0.033004,0.000000,-0.662476,0.126106,0.000000
0.840000,-2.484694,-1.974067,-1.429359,0.333713,1.068813,-0.065541,0.300192,0.414005,0.357352,-1.195260,-6.283098,0.355032,1.330750,2.591030,0.107987,0.043748,-0.031747,0.000000,-0.661272,0.125008,0.000000
0.850000,-2.481342,-1.963359,-1.429997,0.336656,1.072640,-0.061949,0.288311,0.351321,0.360924,-1.180530,-6.252146,0.361077,1.615499,3.598297,1.103583,0.037146,-0.030503,0.000000,-0.658889,0.123570,0.000000
0.860000,-2.477961,-1.952616,-1.430598,0.339480,1.075841,-0.058322,0.276591,0.288998,0.364604,-1.162920,-6.210981,0.376861,1.901166,4.595181,2.118979,0.030574,-0.029275,0.000000,-0.655343,0.121791,0.000000
0.870000,-2.474553,-1.941845,-1.431163,0.342188,1.078421,-0.054656,0.265062,0.227134,0.368495,-1.142473,-6.160067,0.403154,2.188560,5.586675,3.139982,0.024043,-0.028067,0.000000,-0.650705,0.119678,-0.000000
0.880000,-2.471118,-1.931050,-1.431691,0.344782,1.080386,-0.050951,0.253751,0.165830,0.372701,-1.119142,-6.099263,0.439656,2.477875,6.573444,4.159598,0.017564,-0.026882,0.000000,-0.644987,0.117232,0.000000
0.890000,-2.467657,-1.920239,-1.432182,0.347264,1.081740,-0.047201,0.242689,0.105182,0.377322,-1.092908,-6.028612,0.486318,2.769302,7.556156,5.170833,0.011147,-0.025723,0.000000,-0.638222,0.114455,0.000000
0.900000,-2.464173,-1.909417,-1.432635,0.349637,1.082492,-0.043402,0.231903,0.045290,0.382461,-1.063749,-5.948151,0.543021,3.063035,8.535478,6.166694,0.004803,-0.024593,0.000000,-0.630438,0.111349,0.000000
0.910000,-2.460665,-1.898591,-1.433050,0.351903,1.082649,-0.039550,0.221423,-0.013749,0.388215,-1.031675,-5.857958,0.609497,3.360162,9.513261,7.142212,-0.001459,-0.023497,0.000000,-0.621671,0.107919,-0.000000
0.920000,-2.457135,-1.887766,-1.433426,0.354066,1.082220,-0.035636,0.211279,-0.071837,0.394683,-0.996577,-5.757946,0.685676,3.659870,10.488843,8.088119,-0.007628,-0.022436,0.000000,-0.611935,0.104157,-0.000000
0.930000,-2.453584,-1.876949,-1.433762,0.356130,1.081215,-0.031653,0.201502,-0.128875,0.401959,-0.958469,-5.648187,0.771137,3.962244,11.462745,8.997173,-0.013694,-0.021415,0.000000,-0.601259,0.100067,0.000000
0.940000,-2.450013,-1.866144,-1.434058,0.358098,1.079646,-0.027594,0.192120,-0.184768,0.410135,-0.917323,-5.528695,0.865473,4.267366,12.435490,9.862132,-0.019650,-0.020436,0.000000,-0.589665,0.095649,0.000000
0.950000,-2.446422,-1.855358,-1.434314,0.359974,1.077524,-0.023447,0.183165,-0.239417,0.419297,-0.873112,-5.399479,0.968208,4.575321,13.407599,10.675754,-0.025485,-0.019502,0.000000,-0.577170,0.090901,-0.000000
0.960000,-2.442814,-1.844595,-1.434527,0.361762,1.074862,-0.019204,0.174667,-0.292729,0.429527,-0.825922,-5.260864,1.078950,4.889097,14.387687,11.426830,-0.031191,-0.018618,0.000000,-0.563824,0.085834,0.000000
0.970000,-2.439187,-1.833862,-1.434697,0.363469,1.071675,-0.014853,0.166657,-0.344601,0.440900,-0.775451,-5.112089,1.196704,5.205516,15.367193,12.112571,-0.036758,-0.017786,0.000000,-0.549553,0.080415,0.000000
0.980000,-2.435544,-1.823163,-1.434824,0.365097,1.067976,-0.010382,0.159168,-0.394938,0.453483,-0.721803,-4.953523,1.320961,5.524306,16.345647,12.726220,-0.042179,-0.017010,0.000000,-0.534403,0.074655,-0.000000
0.990000,-2.431886,-1.812504,-1.434905,0.366654,1.063781,-0.005779,0.152232,-0.443639,0.467338,-0.664958,-4.785181,1.450966,5.845194,17.322581,13.261022,-0.047443,-0.016293,0.000000,-0.518376,0.068548,-0.000000
1.000000,-2.428212,-1.801889,-1.434939,0.368144,1.059109,-0.001031,0.145880,-0.490609,0.482518,-0.604894,-4.607078,1.585896,6.167908,18.297525,13.710220,-0.052543,-0.015639,0.000000,-0.501471,0.062091,-0.000000
1.010000,-2.424523,-1.791324,-1.434925,0.369574,1.053975,0.003876,0.140143,-0.535755,0.499074,-0.541789,-4.419814,1.725315,6.497086,19.284536,14.055621,-0.057471,-0.015050,0.000000,-0.483745,0.055295,0.000000
1.020000,-2.420820,-1.780811,-1.434861,0.370949,1.048400,0.008955,0.135055,-0.578972,0.517035,-0.475169,-4.222052,1.867193,6.826944,20.266841,14.303306,-0.062215,-0.014532,0.000000,-0.465035,0.048109,0.000000
1.030000,-2.417104,-1.770357,-1.434745,0.372277,1.042403,0.014221,0.130650,-0.620163,0.536425,-0.405250,-4.014500,2.011037,7.156609,21.242193,14.447920,-0.066768,-0.014088,0.000000,-0.445401,0.040546,-0.000000
1.040000,-2.413375,-1.759965,-1.434576,0.373564,1.036004,0.019688,0.126961,-0.659230,0.557258,-0.332040,-3.797239,2.155790,7.485205,22.208346,14.484106,-0.071120,-0.013721,0.000000,-0.424826,0.032600,0.000000
1.050000,-2.409633,-1.749638,-1.434351,0.374819,1.029225,0.025371,0.124021,-0.696076,0.579540,-0.255553,-3.570371,2.300340,7.811861,23.163051,14.406510,-0.075262,-0.013435,0.000000,-0.403291,0.024264,-0.000000
1.060000,-2.405879,-1.739381,-1.434068,0.376047,1.022090,0.031284,0.121858,-0.730613,0.603270,-0.176057,-3.334740,2.444343,8.141878,24.122162,14.189081,-0.079184,-0.013235,0.000000,-0.380860,0.015557,0.000000
1.070000,-2.402112,-1.729197,-1.433724,0.377259,1.014621,0.037441,0.120510,-0.762739,0.628417,-0.093006,-3.088797,2.584639,8.467450,25.063116,13.849691,-0.082875,-0.013124,0.000000,-0.357308,0.006412,0.000000
1.080000,-2.398333,-1.719090,-1.433318,0.378461,1.006844,0.043857,0.120009,-0.792358,0.654949,-0.006728,-2.833553,2.720920,8.786947,25.981447,13.385519,-0.086326,-0.013108,0.000000,-0.332706,-0.003149,-0.000000
1.090000,-2.394543,-1.709062,-1.432846,0.379662,0.998783,0.050544,0.120386,-0.819380,0.682818,0.082707,-2.569258,2.851924,9.098738,26.872692,12.793744,-0.089526,-0.013189,0.000000,-0.307030,-0.013128,-0.000000
1.100000,-2.390740,-1.699115,-1.432306,0.380871,0.990465,0.057517,0.121673,-0.843714,0.711966,0.175216,-2.296204,2.976361,9.401194,27.732387,12.071545,-0.092463,-0.013373,0.000000,-0.280258,-0.023529,-0.000000
1.110000,-2.386925,-1.689253,-1.431695,0.382098,0.981918,0.064787,0.123898,-0.865283,0.742332,0.270466,-2.015377,3.094138,9.698475,28.572395,11.185112,-0.095128,-0.013663,0.000000,-0.252454,-0.034328,-0.000000
1.120000,-2.383098,-1.679477,-1.431009,0.383353,0.973169,0.072367,0.127092,-0.883995,0.773817,0.368882,-1.725627,3.201005,9.982451,29.369927,10.166405,-0.097508,-0.014064,0.000000,-0.223401,-0.045579,0.000000
1.130000,-2.379258,-1.669790,-1.430246,0.384644,0.964248,0.080267,0.131285,-0.899770,0.806316,0.470062,-1.428141,3.297028,10.250784,30.118520,9.016397,-0.099592,-0.014580,0.000000,-0.193178,-0.057250,0.000000
1.140000,-2.375405,-1.660193,-1.429403,0.385982,0.955184,0.088497,0.136502,-0.912533,0.839717,0.573838,-1.123441,3.380899,10.501134,30.811709,7.736059,-0.101368,-0.015216,0.000000,-0.161781,-0.069332,-0.000000
1.150000,-2.371538,-1.650687,-1.428475,0.387377,0.946008,0.097064,0.142770,-0.922216,0.873889,0.680017,-0.812113,3.451318,10.731163,31.443033,6.326366,-0.102824,-0.015975,0.000000,-0.129210,-0.081813,-0.000000
1.160000,-2.367657,-1.641273,-1.427460,0.388841,0.936750,0.105976,0.150109,-0.928759,0.908711,0.788268,-0.495100,3.508581,10.941504,32.013405,4.748321,-0.103949,-0.016862,0.000000,-0.095527,-0.094663,0.000000
1.170000,-2.363761,-1.631952,-1.426355,0.390383,0.927443,0.115239,0.158542,-0.932101,0.944006,0.898630,-0.172427,3.547661,11.126482,32.508081,3.047759,-0.104731,-0.017880,0.000000,-0.060632,-0.107883,0.000000
1.180000,-2.359849,-1.622724,-1.425154,0.392015,0.918119,0.124857,0.168087,-0.932192,0.979606,1.010704,0.154784,3.569147,11.283392,32.919696,1.230547,-0.105158,-0.019033,0.000000,-0.024616,-0.121432,0.000000
1.190000,-2.355921,-1.613590,-1.423856,0.393748,0.908810,0.134832,0.178760,-0.928993,1.015327,1.124195,0.485666,3.571902,11.409533,33.240883,-0.697450,-0.105219,-0.020323,0.000000,0.012472,-0.135274,-0.000000
1.200000,-2.351974,-1.604548,-1.422457,0.395594,0.899550,0.145163,0.190575,-0.922470,1.050978,1.238783,0.819276,3.554848,11.502200,33.464276,-2.730364,-0.104905,-0.021754,0.000000,0.050564,-0.149363,-0.000000
1.210000,-2.348008,-1.595598,-1.420952,0.397564,0.890372,0.155850,0.203540,-0.912598,1.086373,1.354215,1.154946,3.518694,11.556253,33.573783,-4.906013,-0.104205,-0.023328,0.000000,0.089594,-0.163664,-0.000000
1.220000,-2.344022,-1.586740,-1.419338,0.399669,0.881309,0.166889,0.217660,-0.899369,1.121277,1.469888,1.490770,3.458385,11.571726,33.571832,-7.169498,-0.103110,-0.025046,0.000000,0.129413,-0.178080,-0.000000
1.230000,-2.340014,-1.577972,-1.417613,0.401921,0.872396,0.178273,0.232937,-0.882784,1.155464,1.585513,1.825990,3.375049,11.546212,33.452125,-9.509603,-0.101614,-0.026909,0.000000,0.169911,-0.192558,-0.000000
1.240000,-2.335983,-1.569292,-1.415772,0.404331,0.863665,0.189995,0.249369,-0.862855,1.188699,1.700668,2.159399,3.267975,11.477307,33.208364,-11.915112,-0.099711,-0.028917,0.000000,0.210937,-0.207020,-0.000000
1.250000,-2.331927,-1.560698,-1.413812,0.406912,0.855150,0.202043,0.266948,-0.839607,1.220743,1.814907,2.489723,3.136566,11.362607,32.834252,-14.374809,-0.097394,-0.031069,0.000000,0.252313,-0.221380,0.000000
1.260000,-2.327845,-1.552188,-1.411730,0.409674,0.846883,0.214404,0.285666,-0.813063,1.251364,1.928141,2.816781,2.981826,11.190071,32.294366,-16.915109,-0.094662,-0.033365,0.000000,0.293953,-0.235592,-0.000000
1.270000,-2.323733,-1.543759,-1.409523,0.412629,0.838899,0.227064,0.305504,-0.783291,1.280294,2.038973,3.136446,2.799853,10.968109,31.615099,-19.482558,-0.091516,-0.035801,0.000000,0.335348,-0.249431,0.000000
1.280000,-2.319591,-1.535409,-1.407188,0.415788,0.831228,0.240004,0.326438,-0.750359,1.307275,2.147334,3.448610,2.592137,10.695497,30.793720,-22.061334,-0.087957,-0.038373,0.000000,0.376373,-0.262842,-0.000000
1.290000,-2.315417,-1.527133,-1.404722,0.419161,0.823902,0.253202,0.348440,-0.714349,1.332051,2.252711,3.751838,2.358642,10.371010,29.827497,-24.635613,-0.083990,-0.041077,0.000000,0.416749,-0.275706,-0.000000
1.300000,-2.311207,-1.518929,-1.402123,0.422760,0.816951,0.266637,0.371480,-0.675357,1.354363,2.354577,4.044668,2.099492,9.993423,28.713698,-27.189573,-0.079625,-0.043905,0.000000,0.456174,-0.287898,-0.000000
1.310000,-2.306961,-1.510793,-1.399388,0.426594,0.810404,0.280280,0.395526,-0.633475,1.373964,2.453054,4.327504,1.815715,9.544930,27.401757,-29.726187,-0.074869,-0.046851,0.000000,0.494544,-0.299373,-0.000000
1.320000,-2.302675,-1.502720,-1.396517,0.430673,0.804290,0.294106,0.420525,-0.588853,1.390593,2.546038,4.594348,1.505988,9.042917,25.942634,-32.208533,-0.069740,-0.049906,0.000000,0.531004,-0.309806,0.000000
1.330000,-2.298346,-1.494706,-1.393506,0.435008,0.798635,0.308082,0.446429,-0.541639,1.404002,2.633737,4.845877,1.171786,8.488190,24.339456,-34.618485,-0.064256,-0.053059,0.000000,0.565450,-0.319158,-0.000000
1.340000,-2.293974,-1.486746,-1.390355,0.439605,0.793465,0.322174,0.473181,-0.491991,1.413950,2.715629,5.080667,0.813921,7.881554,22.595346,-36.937920,-0.058439,-0.056298,0.000000,0.597531,-0.327304,-0.000000
1.350000,-2.289553,-1.478835,-1.387062,0.444474,0.788803,0.336348,0.500720,-0.440086,1.420205,2.791198,5.297324,0.433389,7.223815,20.713432,-39.148710,-0.052314,-0.059611,0.000000,0.626901,-0.334123,-0.000000
1.360000,-2.285083,-1.470968,-1.383627,0.449621,0.784670,0.350565,0.528991,-0.386085,1.422541,2.860742,5.496741,0.030896,6.495442,18.639896,-41.220782,-0.045908,-0.062986,0.000000,0.653489,-0.339596,-0.000000
1.370000,-2.280560,-1.463139,-1.380051,0.455055,0.781087,0.364785,0.557910,-0.330222,1.420756,2.921858,5.672249,-0.391082,5.720067,16.441779,-43.149423,-0.039256,-0.066405,0.000000,0.676329,-0.343401,0.000000
1.380000,-2.275981,-1.455344,-1.376332,0.460782,0.778071,0.378966,0.587401,-0.272716,1.414658,2.974998,5.825195,-0.831559,4.900985,14.129179,-44.917971,-0.032394,-0.069854,0.000000,0.695432,-0.345559,0.000000
1.390000,-2.271343,-1.447576,-1.372472,0.466805,0.775637,0.393064,0.617382,-0.213797,1.404069,3.019743,5.954485,-1.288852,4.041491,11.712195,-46.509766,-0.025360,-0.073314,0.000000,0.710541,-0.346000,0.000000
1.400000,-2.266644,-1.439829,-1.368471,0.473131,0.773799,0.407032,0.647767,-0.153708,1.388831,3.055704,6.059125,-1.761110,3.144881,9.200924,-47.908144,-0.018197,-0.076770,0.000000,0.721441,-0.344677,0.000000
1.410000,-2.261880,-1.432098,-1.364332,0.479761,0.772566,0.420825,0.678473,-0.092678,1.368783,3.083248,6.140188,-2.248229,2.196263,6.555832,-49.048081,-0.010944,-0.080204,0.000000,0.728195,-0.341626,0.000000
1.420000,-2.257048,-1.424376,-1.360055,0.486701,0.771947,0.434392,0.709400,-0.030994,1.343832,3.100347,6.192230,-2.743494,1.219347,3.842728,-49.967201,-0.003648,-0.083597,0.000000,0.730130,-0.336685,0.000000
1.430000,-2.252145,-1.416657,-1.355645,0.493950,0.771947,0.447685,0.740447,0.031075,1.313886,3.107559,6.216869,-3.246802,0.219654,1.077786,-50.654762,0.003644,-0.086932,0.000000,0.727461,-0.329949,0.000000
1.440000,-2.247168,-1.408935,-1.351103,0.501510,0.772569,0.460653,0.771517,0.093251,1.278877,3.104683,6.213667,-3.755782,-0.797292,-1.722817,-51.100026,0.010886,-0.090190,0.000000,0.720198,-0.321462,0.000000
1.450000,-2.242113,-1.401204,-1.346433,0.509380,0.773811,0.473245,0.802507,0.155254,1.238760,3.091574,6.182348,-4.267959,-1.825970,-4.542906,-51.292253,0.018033,-0.093356,0.000000,0.708413,-0.311291,0.000000
1.460000,-2.236979,-1.393457,-1.341639,0.517559,0.775672,0.485412,0.833318,0.216814,1.193482,3.068496,6.123731,-4.783882,-2.869787,-7.389875,-51.141531,0.025040,-0.096412,0.000000,0.692331,-0.299527,0.000000
1.470000,-2.231761,-1.385688,-1.336726,0.526045,0.778145,0.497099,0.863842,0.277634,1.143092,3.034578,6.035655,-5.293441,-3.913198,-10.221092,-50.725987,0.031865,-0.099343,0.000000,0.671907,-0.286267,0.000000
1.480000,-2.226457,-1.377892,-1.331699,0.534835,0.781221,0.508257,0.893975,0.337433,1.087631,2.990255,5.919425,-5.797516,-4.949586,-13.017497,-50.044574,0.038465,-0.102136,0.000000,0.647501,-0.271646,0.000000
1.490000,-2.221064,-1.370062,-1.326563,0.543923,0.784889,0.518835,0.923613,0.395930,1.027168,2.935632,5.775485,-6.293443,-5.972336,-15.760027,-49.096247,0.044803,-0.104776,0.000000,0.619404,-0.255803,0.000000
1.500000,-2.215578,-1.362192,-1.321324,0.553305,0.789135,0.528784,0.952654,0.452852,0.961798,2.870876,5.604468,-6.778547,-6.974832,-18.429621,-47.879962,0.050842,-0.107253,0.000000,0.587946,-0.238894,-0.000000
1.510000,-2.209997,-1.354277,-1.315990,0.562974,0.793940,0.538056,0.980995,0.507925,0.891604,2.795969,5.406488,-7.253695,-7.944006,-20.989252,-46.305012,0.056551,-0.109556,0.000000,0.553387,-0.221009,-0.000000
1.520000,-2.204317,-1.346311,-1.310566,0.572922,0.799286,0.546602,1.008541,0.560899,0.816781,2.711817,5.184244,-7.707787,-8.880485,-23.440023,-44.470990,0.061901,-0.111678,0.000000,0.516355,-0.202485,0.000000
1.530000,-2.198537,-1.338290,-1.305060,0.583142,0.805150,0.554377,1.035200,0.611530,0.737513,2.618488,4.938107,-8.142284,-9.778442,-25.765073,-42.387831,0.066870,-0.113612,0.000000,0.477137,-0.183410,0.000000
1.540000,-2.192654,-1.330207,-1.299481,0.593623,0.811508,0.561338,1.060882,0.659586,0.654009,2.516396,4.669418,-8.554746,-10.632052,-27.947540,-40.065467,0.071438,-0.115353,0.000000,0.436139,-0.163951,-0.000000
1.550000,-2.186664,-1.322058,-1.293836,0.604356,0.818333,0.567444,1.085501,0.704848,0.566500,2.406014,4.379687,-8.942829,-11.435490,-29.970562,-37.513832,0.075589,-0.116899,0.000000,0.393764,-0.144270,-0.000000
1.560000,-2.180566,-1.313839,-1.288135,0.615329,0.825596,0.572656,1.108967,0.747088,0.475211,2.286970,4.068165,-9.307094,-12.160120,-31.755914,-34.672069,0.079307,-0.118245,0.000000,0.350136,-0.124394,0.000000
1.570000,-2.174357,-1.305545,-1.282386,0.626531,0.833265,0.576937,1.131217,0.786155,0.380456,2.161990,3.742448,-9.638762,-12.825718,-33.355612,-31.629569,0.082590,-0.119395,0.000000,0.306302,-0.104780,-0.000000
1.580000,-2.168034,-1.297172,-1.276599,0.637949,0.841308,0.580255,1.152185,0.821887,0.282540,2.030662,3.401702,-9.939078,-13.429253,-34.760306,-28.404934,0.085433,-0.120349,0.000000,0.262307,-0.085414,-0.000000
1.590000,-2.161597,-1.288717,-1.270784,0.649571,0.849691,0.582579,1.171811,0.854145,0.181785,1.893622,3.047924,-10.206316,-13.967690,-35.960648,-25.016765,0.087836,-0.121110,0.000000,0.218483,-0.066416,0.000000
1.600000,-2.155042,-1.280177,-1.264951,0.661381,0.858379,0.583882,1.190041,0.882809,0.078529,1.751536,2.683202,-10.438931,-14.437998,-36.947291,-21.483664,0.089804,-0.121684,0.000000,0.175143,-0.047896,0.000000
1.610000,-2.148369,-1.271549,-1.259110,0.673367,0.867336,0.584142,1.206814,0.907743,-0.026887,1.603829,2.306331,-10.636766,-14.805060,-37.625260,-17.793955,0.091338,-0.122072,0.000000,0.132226,-0.029809,0.000000
1.620000,-2.141574,-1.262830,-1.253272,0.685513,0.876522,0.583339,1.222106,0.928917,-0.134081,1.454236,1.927614,-10.795815,-15.101855,-38.081317,-14.000224,0.092452,-0.122285,0.000000,0.090815,-0.012572,-0.000000
1.630000,-2.134658,-1.254018,-1.247447,0.697804,0.885902,0.581456,1.235890,0.946284,-0.242675,1.302023,1.545441,-10.916499,-15.329279,-38.316600,-10.124779,0.093159,-0.122328,0.000000,0.050730,0.003909,-0.000000
1.640000,-2.127618,-1.245111,-1.241646,0.710225,0.895435,0.578482,1.248140,0.959822,-0.352281,1.147879,1.162014,-10.998112,-15.488226,-38.332245,-6.189930,0.093472,-0.122209,0.000000,0.012157,0.019585,0.000000
1.650000,-2.120453,-1.236109,-1.235881,0.722762,0.905085,0.574408,1.258843,0.969528,-0.462506,0.992484,0.779524,-11.040173,-15.579594,-38.129390,-2.217985,0.093407,-0.121937,0.000000,-0.024746,0.034417,-0.000000
1.660000,-2.113162,-1.227009,-1.230162,0.735397,0.914814,0.569231,1.267975,0.975388,-0.572946,0.835329,0.396971,-11.041874,-15.574471,-37.628872,1.754883,0.092980,-0.121519,0.000000,-0.060138,0.048482,-0.000000
1.670000,-2.105745,-1.217812,-1.224500,0.748116,0.924582,0.562950,1.275551,0.977487,-0.683211,0.679871,0.024050,-11.004476,-15.507209,-36.921959,5.721927,0.092211,-0.120966,0.000000,-0.093212,0.061516,0.000000
1.680000,-2.098200,-1.208518,-1.218907,0.760903,0.934351,0.555569,1.281576,0.975896,-0.792904,0.525377,-0.340816,-10.927523,-15.382354,-36.019620,9.662535,0.091122,-0.120287,0.000000,-0.124230,0.073634,0.000000
1.690000,-2.090527,-1.199125,-1.213392,0.773743,0.944087,0.547095,1.286063,0.970704,-0.901630,0.372401,-0.695728,-10.811382,-15.204451,-34.932824,13.556097,0.089734,-0.119490,0.000000,-0.153141,0.084844,0.000000
1.700000,-2.082725,-1.189636,-1.207968,0.786619,0.953754,0.537541,1.289031,0.962020,-1.009002,0.221450,-1.038894,-10.656627,-14.978045,-33.672540,17.382001,0.088067,-0.118586,0.000000,-0.179913,0.095162,0.000000
1.710000,-2.074794,-1.180051,-1.202645,0.799519,0.963317,0.526920,1.290493,0.949949,-1.114617,0.072303,-1.370644,-10.462216,-14.690415,-32.199039,21.073658,0.086141,-0.117582,0.000000,-0.204699,0.104654,-0.000000
1.720000,-2.066734,-1.170370,-1.197433,0.812425,0.972743,0.515255,1.290487,0.934659,-1.218125,-0.073005,-1.684654,-10.233445,-14.365487,-30.580195,24.662065,0.083980,-0.116488,0.000000,-0.227108,0.113249,0.000000
1.730000,-2.058546,-1.160596,-1.192343,0.825324,0.982000,0.502566,1.289044,0.916312,-1.319168,-0.214905,-1.981821,-9.969369,-14.009923,-28.833186,28.132241,0.081606,-0.115312,0.000000,-0.247351,0.121032,-0.000000
1.740000,-2.050228,-1.150731,-1.187385,0.838201,0.991060,0.488881,1.286201,0.895083,-1.417399,-0.353124,-2.260948,-9.671245,-13.630382,-26.975189,31.469204,0.079040,-0.114062,0.000000,-0.265465,0.128046,-0.000000
1.750000,-2.041782,-1.140776,-1.182569,0.851043,0.999893,0.474228,1.281995,0.871157,-1.512484,-0.487455,-2.521012,-9.340479,-13.233525,-25.023380,34.657975,0.076304,-0.112745,0.000000,-0.281499,0.134338,0.000000
1.760000,-2.033207,-1.130734,-1.177904,0.863836,1.008474,0.458642,1.276466,0.844725,-1.604080,-0.617731,-2.761546,-8.976320,-12.826702,-22.985177,37.625247,0.073417,-0.111370,0.000000,-0.295531,0.139935,-0.000000
1.770000,-2.024505,-1.120607,-1.173399,0.876568,1.016780,0.442159,1.269654,0.815995,-1.691915,-0.743944,-2.980957,-8.585940,-12.415797,-20.888711,40.421506,0.070399,-0.109941,0.000000,-0.307584,0.144951,0.000000
1.780000,-2.015676,-1.110399,-1.169064,0.889225,1.024787,0.424817,1.261601,0.785176,-1.775709,-0.866056,-3.179188,-8.168486,-12.007387,-18.752354,43.038912,0.067271,-0.108465,0.000000,-0.317754,0.149412,0.000000
1.790000,-2.006721,-1.100113,-1.164906,0.901796,1.032477,0.406659,1.252346,0.752483,-1.855200,-0.984122,-3.355932,-7.725784,-11.608047,-16.594478,45.469626,0.064050,-0.106948,0.000000,-0.326122,0.153380,0.000000
1.800000,-1.997641,-1.089751,-1.160933,0.914268,1.039831,0.387728,1.241931,0.718130,-1.930147,-1.098269,-3.511067,-7.259742,-11.224352,-14.433455,47.705809,0.060754,-0.105393,0.000000,-0.332778,0.156913,-0.000000
1.810000,-1.988436,-1.079317,-1.157154,0.926631,1.046835,0.368071,1.230401,0.682346,-2.000301,-1.207972,-3.643525,-6.770251,-10.880841,-12.316117,49.686792,0.057401,-0.103806,0.000000,-0.337710,0.159999,0.000000
1.820000,-1.979108,-1.068815,-1.153574,0.938873,1.053474,0.347738,1.217783,0.645329,-2.065489,-1.315172,-3.756219,-6.264327,-10.563926,-10.228890,51.464034,0.054005,-0.102189,0.000000,-0.341264,0.162887,-0.000000
1.830000,-1.969659,-1.058249,-1.150201,0.950983,1.059738,0.326778,1.204108,0.607290,-2.125532,-1.419354,-3.848253,-5.741654,-10.277983,-8.186663,53.036164,0.050581,-0.100544,0.000000,-0.343418,0.165550,-0.000000
1.840000,-1.960089,-1.047622,-1.147040,0.962951,1.065617,0.305245,1.189405,0.568431,-2.180273,-1.520850,-3.920152,-5.204292,-10.027389,-6.204321,54.401813,0.047141,-0.098874,0.000000,-0.344270,0.168054,-0.000000
1.850000,-1.950400,-1.036938,-1.144098,0.974768,1.071104,0.283191,1.173699,0.528952,-2.229576,-1.620034,-3.972589,-4.654311,-9.816519,-4.296753,55.559609,0.043699,-0.097180,0.000000,-0.343923,0.170461,-0.000000
1.860000,-1.940594,-1.026201,-1.141378,0.986422,1.076194,0.260672,1.157023,0.489065,-2.273308,-1.716160,-4.004262,-4.092291,-9.679224,-2.532479,56.470158,0.040268,-0.095463,0.000000,-0.342302,0.172731,0.000000
1.870000,-1.930673,-1.015415,-1.138886,0.997904,1.080884,0.237743,1.139379,0.448924,-2.311395,-1.812452,-4.021170,-3.523896,-9.586795,-0.866184,57.174770,0.036856,-0.093722,0.000000,-0.339936,0.175184,-0.000000
1.880000,-1.920637,-1.004585,-1.136624,1.009206,1.085172,0.214463,1.120776,0.408695,-2.343766,-1.908048,-4.021940,-2.949471,-9.540000,0.693811,57.676731,0.033472,-0.091956,0.000000,-0.336723,0.177759,0.000000
1.890000,-1.910489,-0.993713,-1.134597,1.020317,1.089058,0.190887,1.101219,0.368535,-2.370371,-2.003407,-4.007676,-2.371026,-9.539606,2.139189,57.979326,0.030124,-0.090164,0.000000,-0.332763,0.180519,0.000000
1.900000,-1.900231,-0.982805,-1.132807,1.031227,1.092544,0.167075,1.080707,0.328588,-2.391179,-2.098997,-3.979566,-1.790538,-9.586379,3.461629,58.085841,0.026819,-0.088343,0.000000,-0.328155,0.183524,0.000000
1.910000,-1.889865,-0.971864,-1.131256,1.041927,1.095630,0.143083,1.059251,0.289012,-2.406171,-2.194014,-3.936452,-1.209028,-9.713416,4.591459,57.976215,0.023565,-0.086493,0.000000,-0.322800,0.186725,0.000000
1.920000,-1.879393,-0.960894,-1.129946,1.052409,1.098324,0.118970,1.036822,0.249894,-2.415367,-2.291972,-3.885438,-0.630594,-9.885195,5.589225,57.679939,0.020365,-0.084607,0.000000,-0.317271,0.190442,-0.000000
1.930000,-1.868818,-0.949899,-1.128877,1.062660,1.100630,0.094795,1.013405,0.211334,-2.418796,-2.391857,-3.825110,-0.056031,-10.098524,6.454120,57.203158,0.017221,-0.082681,0.000000,-0.311436,0.194606,-0.000000
1.940000,-1.858141,-0.938882,-1.128050,1.072673,1.102553,0.070613,0.988977,0.173419,-2.416506,-2.494070,-3.756801,0.512888,-10.350211,7.185338,56.552016,0.014137,-0.080712,0.000000,-0.305385,0.199272,0.000000
1.950000,-1.847365,-0.927849,-1.127465,1.082437,1.104101,0.046483,0.963514,0.136221,-2.408563,-2.598978,-3.681852,1.074449,-10.637064,7.782072,55.732659,0.011114,-0.078694,0.000000,-0.299207,0.204489,0.000000
1.960000,-1.836493,-0.916802,-1.127120,1.091940,1.105280,0.022461,0.936999,0.099822,-2.395041,-2.705875,-3.599508,1.627566,-10.982232,8.190401,54.736956,0.008155,-0.076621,0.000000,-0.292816,0.210218,0.000000
1.970000,-1.825527,-0.905744,-1.127015,1.101173,1.106099,-0.001399,0.909385,0.064242,-2.376047,-2.817532,-3.516105,2.169311,-11.352957,8.469136,53.587075,0.005257,-0.074487,0.000000,-0.286706,0.216715,-0.000000
1.980000,-1.814471,-0.894681,-1.127147,1.110124,1.106567,-0.025043,0.880635,0.029507,-2.351696,-2.932998,-3.430538,2.698820,-11.742821,8.623973,52.290907,0.002420,-0.072284,0.000000,-0.280763,0.223923,0.000000
1.990000,-1.803326,-0.883614,-1.127515,1.118781,1.106692,-0.048416,0.850712,-0.004366,-2.322116,-3.052431,-3.344019,3.214668,-12.145405,8.660609,50.856344,-0.000359,-0.070006,0.000000,-0.275059,0.231879,-0.000000
2.000000,-1.792096,-0.872548,-1.128115,1.127134,1.106483,-0.071468,0.819573,-0.037374,-2.287452,-3.175927,-3.257701,3.715512,-12.554293,8.584742,49.291280,-0.003082,-0.067644,0.000000,-0.269667,0.240616,0.000000
2.010000,-1.780784,-0.861486,-1.128943,1.135168,1.105947,-0.094149,0.787185,-0.069510,-2.247856,-3.302990,-3.171362,4.200502,-12.976355,8.368767,47.593072,-0.005752,-0.065191,0.000000,-0.264543,0.250116,-0.000000
2.020000,-1.769394,-0.850430,-1.129996,1.142873,1.105095,-0.116409,0.753499,-0.100810,-2.203501,-3.434834,-3.089163,4.667465,-13.390258,8.055760,45.781436,-0.008375,-0.062639,0.000000,-0.260009,0.260512,-0.000000
2.030000,-1.757928,-0.839385,-1.131270,1.150234,1.103934,-0.138203,0.718475,-0.131305,-2.154569,-3.570741,-3.010538,5.115783,-13.787957,7.655495,43.865556,-0.010954,-0.059978,0.000000,-0.256001,0.271770,0.000000
2.040000,-1.746390,-0.828352,-1.132759,1.157238,1.102472,-0.159486,0.682072,-0.161035,-2.101251,-3.710512,-2.936311,5.544460,-14.161407,7.177745,41.854614,-0.013497,-0.057200,0.000000,-0.252569,0.283902,-0.000000
2.050000,-1.734784,-0.817336,-1.134458,1.163871,1.100716,-0.180214,0.644253,-0.190048,-2.043748,-3.853862,-2.867209,5.952589,-14.502563,6.632286,39.757790,-0.016008,-0.054297,0.000000,-0.249759,0.296909,0.000000
2.060000,-1.723114,-0.806339,-1.136361,1.170118,1.098673,-0.200348,0.604982,-0.218395,-1.982267,-4.000565,-2.803548,6.339667,-14.799943,6.021041,37.576514,-0.018494,-0.051258,0.000000,-0.247586,0.310801,0.000000
2.070000,-1.711383,-0.795364,-1.138462,1.175965,1.096350,-0.219847,0.564232,-0.246141,-1.917028,-4.149854,-2.746595,6.704244,-15.049360,5.362597,35.328671,-0.020962,-0.048077,0.000000,-0.246146,0.325539,-0.000000
2.080000,-1.699596,-0.784413,-1.140756,1.181398,1.093752,-0.238677,0.521978,-0.273350,-1.848258,-4.301367,-2.696417,7.046052,-15.243190,4.667689,33.024394,-0.023419,-0.044743,0.000000,-0.245437,0.341117,0.000000
2.090000,-1.687757,-0.773490,-1.143234,1.186400,1.090884,-0.256802,0.478200,-0.300093,-1.776185,-4.454508,-2.653327,7.364578,-15.373810,3.947052,30.673814,-0.025873,-0.041250,0.000000,-0.245480,0.357504,0.000000
2.100000,-1.675870,-0.762596,-1.145889,1.190957,1.087751,-0.274190,0.432884,-0.326441,-1.701045,-4.608607,-2.617526,7.659408,-15.433596,3.211421,28.287065,-0.028331,-0.037588,0.000000,-0.246290,0.374661,0.000000
2.110000,-1.663939,-0.751735,-1.148715,1.195053,1.084357,-0.290813,0.386018,-0.352475,-1.623076,-4.763688,-2.589749,7.930273,-15.395473,2.487603,25.873243,-0.030802,-0.033750,0.000000,-0.247930,0.392605,0.000000
2.120000,-1.651970,-0.740910,-1.151703,1.198672,1.080703,-0.306643,0.337613,-0.378260,-1.542520,-4.917106,-2.568477,8.176866,-15.273650,1.768296,23.443642,-0.033292,-0.029730,0.000000,-0.250265,0.411117,-0.000000
2.130000,-1.639967,-0.730122,-1.154845,1.201800,1.076792,-0.321656,0.287682,-0.403868,-1.459620,-5.068864,-2.554338,8.399127,-15.062885,1.062265,21.008519,-0.035810,-0.025522,0.000000,-0.253352,0.430200,-0.000000
2.140000,-1.627936,-0.719375,-1.158133,1.204421,1.072626,-0.335828,0.236245,-0.429370,-1.374619,-5.218049,-2.547158,8.597052,-14.757934,0.378280,18.578134,-0.038362,-0.021119,0.000000,-0.257174,0.449770,0.000000
2.150000,-1.615881,-0.708671,-1.161559,1.206520,1.068205,-0.349142,0.183333,-0.454833,-1.287760,-5.363692,-2.546670,8.770740,-14.353555,-0.274893,16.162745,-0.040956,-0.016518,0.000000,-0.261710,0.469735,-0.000000
2.160000,-1.603807,-0.698012,-1.165113,1.208083,1.063529,-0.361578,0.128973,-0.480338,-1.199289,-5.505991,-2.553806,8.919930,-13.813716,-0.856094,13.784267,-0.043600,-0.011714,0.000000,-0.267042,0.490097,0.000000
2.170000,-1.591721,-0.687401,-1.168787,1.209095,1.058598,-0.373123,0.073233,-0.505928,-1.109440,-5.640987,-2.565090,9.046019,-13.167736,-1.392914,11.439875,-0.046299,-0.006707,0.000000,-0.272861,0.510474,-0.000000
2.180000,-1.579627,-0.676841,-1.172573,1.209543,1.053410,-0.383763,0.016176,-0.531657,-1.018446,-5.768987,-2.581500,9.148871,-12.414141,-1.880551,9.138400,-0.049059,-0.001494,0.000000,-0.279248,0.530859,0.000000
2.190000,-1.567532,-0.666334,-1.176460,1.209415,1.047964,-0.393489,-0.042120,-0.557574,-0.926539,-5.888906,-2.602521,9.228959,-11.551462,-2.314203,6.888675,-0.051885,0.003923,0.000000,-0.286152,0.551113,0.000000
2.200000,-1.555441,-0.655882,-1.180439,1.208697,1.042258,-0.402292,-0.101571,-0.583721,-0.833941,-5.999647,-2.627589,9.286846,-10.578225,-2.689070,4.699529,-0.054783,0.009542,0.000000,-0.293516,0.571084,0.000000
2.210000,-1.543360,-0.645489,-1.184502,1.207380,1.036289,-0.410166,-0.162094,-0.610153,-0.740885,-6.101475,-2.657567,9.322076,-9.458149,-2.963066,2.607698,-0.057758,0.015362,0.000000,-0.301406,0.590738,-0.000000
2.220000,-1.531295,-0.635157,-1.188639,1.205452,1.030054,-0.417108,-0.223561,-0.636880,-0.647568,-6.190000,-2.688302,9.338004,-8.228834,-3.173238,0.590692,-0.060812,0.021375,0.000000,-0.309436,0.609597,-0.000000
2.230000,-1.519253,-0.624889,-1.192841,1.202906,1.023551,-0.423117,-0.285851,-0.663925,-0.554191,-6.265697,-2.720818,9.334158,-6.893071,-3.319353,-1.346072,-0.063948,0.027574,0.000000,-0.317679,0.627628,0.000000
2.240000,-1.507239,-0.614687,-1.197099,1.199733,1.016775,-0.428192,-0.348829,-0.691301,-0.460948,-6.327516,-2.754474,9.311368,-5.453651,-3.401173,-3.197182,-0.067166,0.033950,0.000000,-0.326058,0.644647,0.000000
2.250000,-1.495261,-0.604554,-1.201402,1.195928,1.009724,-0.432337,-0.412352,-0.719016,-0.368024,-6.374434,-2.788626,9.270518,-3.913365,-3.418462,-4.957221,-0.070469,0.040492,0.000000,-0.334493,0.660465,-0.000000
2.260000,-1.483323,-0.594494,-1.205742,1.191485,1.002394,-0.435554,-0.476278,-0.747085,-0.275613,-6.406692,-2.823812,9.210893,-2.243788,-3.341067,-6.579059,-0.073857,0.047188,0.000000,-0.343004,0.675004,0.000000
2.270000,-1.471433,-0.584508,-1.210110,1.186402,0.994781,-0.437851,-0.540428,-0.775489,-0.183859,-6.420398,-2.856579,9.137397,-0.482749,-3.202332,-8.104106,-0.077329,0.054023,0.000000,-0.351260,0.687797,-0.000000
2.280000,-1.459597,-0.574599,-1.214496,1.180676,0.986883,-0.439234,-0.604626,-0.804211,-0.092914,-6.416064,-2.887666,9.049135,1.363141,-3.005688,-9.532055,-0.080882,0.060980,0.000000,-0.359295,0.698783,0.000000
2.290000,-1.447822,-0.564771,-1.218892,1.174310,0.978696,-0.439712,-0.668687,-0.833234,-0.002922,-6.392875,-2.916511,8.947080,3.287269,-2.754561,-10.862601,-0.084514,0.068038,0.000000,-0.367030,0.707772,0.000000
2.300000,-1.436113,-0.555026,-1.223288,1.167304,0.970217,-0.439296,-0.732418,-0.862532,0.085985,-6.350080,-2.942587,8.832209,5.283022,-2.452379,-12.095437,-0.088221,0.075179,0.000000,-0.374386,0.714584,-0.000000
2.310000,-1.424478,-0.545367,-1.227675,1.159663,0.961445,-0.437996,-0.795630,-0.892081,0.173663,-6.287885,-2.965944,8.703700,7.366214,-2.088823,-13.184842,-0.092000,0.082379,0.000000,-0.381328,0.719116,0.000000
2.320000,-1.412922,-0.535798,-1.232045,1.151394,0.952375,-0.435826,-0.858106,-0.921838,0.260024,-6.203572,-2.984836,8.566793,9.505059,-1.682751,-14.181485,-0.095846,0.089614,0.000000,-0.387697,0.721021,-0.000000
2.330000,-1.401452,-0.526321,-1.236388,1.142504,0.943007,-0.432800,-0.919630,-0.951764,0.344967,-6.097630,-2.999475,8.420362,11.690199,-1.239274,-15.090621,-0.099752,0.096857,0.000000,-0.393473,0.720233,-0.000000
2.340000,-1.390074,-0.516939,-1.240698,1.133005,0.933340,-0.428932,-0.979985,-0.981813,0.428402,-5.969645,-3.009513,8.265255,13.912275,-0.763504,-15.917504,-0.103713,0.104081,0.000000,-0.398602,0.716610,0.000000
2.350000,-1.378794,-0.507655,-1.244964,1.122909,0.923371,-0.424238,-1.038948,-1.011938,0.510246,-5.819293,-3.014654,8.102269,16.161928,-0.260553,-16.667388,-0.107722,0.111256,0.000000,-0.403035,0.710026,-0.000000
2.360000,-1.367618,-0.498473,-1.249180,1.112232,0.913101,-0.418732,-1.096301,-1.042087,0.590410,-5.646839,-3.014511,7.930826,18.442264,0.260929,-17.312177,-0.111771,0.118354,0.000000,-0.406700,0.700407,-0.000000
2.370000,-1.356551,-0.489394,-1.253336,1.100990,0.902529,-0.412435,-1.151809,-1.072210,0.668842,-5.450979,-3.009220,7.754744,20.729933,0.799803,-17.894560,-0.115853,0.125342,0.000000,-0.409638,0.687573,-0.000000
2.380000,-1.345600,-0.480423,-1.257426,1.089203,0.891657,-0.405362,-1.205244,-1.102253,0.745486,-5.232252,-2.998472,7.573112,23.014052,1.351393,-18.423876,-0.119961,0.132188,0.000000,-0.411790,0.671492,0.000000
2.390000,-1.334769,-0.471562,-1.261441,1.076892,0.880485,-0.397531,-1.256378,-1.132161,0.820288,-4.990746,-2.982165,7.386413,25.283734,1.911021,-18.909464,-0.124087,0.138858,0.000000,-0.413138,0.652105,0.000000
2.400000,-1.324063,-0.462814,-1.265374,1.064083,0.869014,-0.388962,-1.304984,-1.161878,0.893199,-4.726662,-2.960241,7.195037,27.528096,2.474009,-19.360662,-0.128221,0.145319,0.000000,-0.413669,0.629375,0.000000
2.410000,-1.313489,-0.454183,-1.269218,1.050802,0.857248,-0.379673,-1.350838,-1.191341,0.964171,-4.440453,-2.932097,6.998998,29.739996,3.020736,-19.779608,-0.132356,0.151538,0.000000,-0.413307,0.603293,0.000000
2.420000,-1.303049,-0.445670,-1.272965,1.037077,0.845188,-0.369685,-1.393720,-1.220502,1.033165,-4.132187,-2.899173,6.799173,31.904348,3.563298,-20.183723,-0.136485,0.157480,0.000000,-0.412219,0.573828,0.000000
2.430000,-1.292748,-0.437280,-1.276609,1.022938,0.832839,-0.359017,-1.433411,-1.249306,1.100141,-3.802563,-2.860855,6.595339,34.009807,4.098847,-20.583226,-0.140598,0.163111,0.000000,-0.410327,0.541010,-0.000000
2.440000,-1.282591,-0.429015,-1.280143,1.008420,0.820203,-0.347689,-1.469702,-1.277701,1.165058,-3.452225,-2.817229,6.387490,36.045030,4.624534,-20.988339,-0.144689,0.168397,0.000000,-0.407638,0.504871,0.000000
2.450000,-1.272581,-0.420877,-1.283561,0.993556,0.807286,-0.335723,-1.502389,-1.305633,1.227877,-3.081934,-2.768407,6.175519,37.998673,5.137513,-21.409280,-0.148748,0.173304,0.000000,-0.404156,0.465460,-0.000000
2.460000,-1.262721,-0.412870,-1.286856,0.978385,0.794092,-0.323139,-1.531275,-1.333044,1.288565,-2.692369,-2.713803,5.960188,39.854526,5.616572,-21.880780,-0.152768,0.177799,0.000000,-0.399823,0.422841,0.000000
2.470000,-1.253014,-0.404996,-1.290022,0.962944,0.780627,-0.309959,-1.556176,-1.359894,1.347064,-2.284972,-2.655309,5.738887,41.606708,6.079475,-22.385549,-0.156742,0.181850,0.000000,-0.394798,0.377102,-0.000000
2.480000,-1.243463,-0.397258,-1.293053,0.947275,0.766896,-0.296205,-1.576918,-1.386135,1.403325,-1.860616,-2.592270,5.512342,43.244473,6.525622,-22.930804,-0.160662,0.185424,0.000000,-0.389008,0.328336,-0.000000
2.490000,-1.234069,-0.389659,-1.295944,0.931420,0.752906,-0.281900,-1.593336,-1.411725,1.457292,-1.420500,-2.524855,5.280112,44.757072,6.954414,-23.523765,-0.164520,0.188492,0.000000,-0.382452,0.276659,-0.000000
2.500000,-1.224835,-0.382201,-1.298689,0.915423,0.738664,-0.267067,-1.605279,-1.436618,1.508907,-0.965928,-2.453241,5.041683,46.133759,7.365251,-24.171649,-0.168308,0.191024,0.000000,-0.375119,0.222199,0.000000
2.510000,-1.215761,-0.374886,-1.301284,0.899330,0.724176,-0.251731,-1.612604,-1.460770,1.558126,-0.497667,-2.377027,4.798519,47.347469,7.742763,-24.933389,-0.172019,0.192990,0.000000,-0.366974,0.165078,0.000000
2.520000,-1.206849,-0.367718,-1.303722,0.883187,0.709451,-0.235914,-1.615195,-1.484147,1.604851,-0.018768,-2.297784,4.545114,48.405769,8.102930,-25.758159,-0.175645,0.194366,0.000000,-0.358056,0.105528,0.000000
2.530000,-1.198098,-0.360698,-1.306000,0.867042,0.694496,-0.219642,-1.612947,-1.506714,1.648999,0.469901,-2.215022,4.283143,49.299911,8.446961,-26.646845,-0.179178,0.195126,0.000000,-0.348306,0.043703,-0.000000
2.540000,-1.189508,-0.353829,-1.308114,0.850944,0.679320,-0.202943,-1.605770,-1.528436,1.690483,0.966654,-2.128895,4.011961,50.021143,8.776066,-27.600334,-0.182608,0.195247,0.000000,-0.337693,-0.020190,0.000000
2.550000,-1.181078,-0.347112,-1.310058,0.834943,0.663930,-0.185842,-1.593593,-1.549281,1.729206,1.469718,-2.039546,3.730917,50.560717,9.091452,-28.619513,-0.185928,0.194709,0.000000,-0.326174,-0.085920,0.000000
2.560000,-1.172808,-0.340551,-1.311829,0.819089,0.648337,-0.168369,-1.576347,-1.569214,1.765094,1.978496,-1.946871,3.441937,50.877992,9.388362,-29.770639,-0.189129,0.193492,0.000000,-0.313740,-0.153322,0.000000
2.570000,-1.164696,-0.334146,-1.313424,0.803433,0.632549,-0.150551,-1.554015,-1.588208,1.798005,2.488051,-1.851548,3.138224,51.000014,9.674704,-30.981224,-0.192200,0.191582,0.000000,-0.300255,-0.221901,-0.000000
2.580000,-1.156739,-0.327901,-1.314839,0.788025,0.616576,-0.132419,-1.526585,-1.606236,1.827817,2.997829,-1.753406,2.822138,50.921940,9.952417,-32.244150,-0.195131,0.188967,0.000000,-0.285702,-0.291444,0.000000
2.590000,-1.148934,-0.321815,-1.316072,0.772918,0.600428,-0.114005,-1.494065,-1.623267,1.854405,3.505807,-1.652522,2.493191,50.638923,10.223441,-33.552298,-0.197910,0.185638,0.000000,-0.270025,-0.361610,0.000000
2.600000,-1.141279,-0.315893,-1.317119,0.758161,0.584114,-0.095342,-1.456482,-1.639277,1.877637,4.009909,-1.548953,2.150965,50.146121,10.489716,-34.898551,-0.200527,0.181590,0.000000,-0.253170,-0.432026,0.000000
2.610000,-1.133770,-0.310134,-1.317978,0.743804,0.567646,-0.076465,-1.413865,-1.654239,1.897404,4.509994,-1.442905,1.797447,49.388659,10.757425,-36.334650,-0.202970,0.176819,0.000000,-0.235168,-0.502475,0.000000
2.620000,-1.126402,-0.304540,-1.318647,0.729899,0.551033,-0.057407,-1.366311,-1.668126,1.913538,4.999204,-1.333998,1.426844,48.417847,11.023746,-37.787410,-0.205226,0.171332,0.000000,-0.215772,-0.572072,0.000000
2.630000,-1.119170,-0.299113,-1.319125,0.716494,0.534287,-0.038207,-1.313917,-1.680911,1.925892,5.477644,-1.222430,1.041691,47.234968,11.290098,-39.242508,-0.207281,0.165136,0.000000,-0.195042,-0.640560,0.000000
2.640000,-1.112070,-0.293855,-1.319411,0.703637,0.517419,-0.018902,-1.256801,-1.692566,1.934323,5.943201,-1.108192,0.642034,45.841302,11.557902,-40.685618,-0.209123,0.158246,0.000000,-0.172956,-0.707445,-0.000000
2.650000,-1.105096,-0.288765,-1.319503,0.691374,0.500439,0.000466,-1.195103,-1.703065,1.938685,6.393772,-0.991262,0.228066,44.238131,11.828579,-42.102416,-0.210736,0.150679,0.000000,-0.149511,-0.772214,-0.000000
2.660000,-1.098240,-0.283846,-1.319402,0.679749,0.483361,0.019857,-1.128955,-1.712387,1.938851,6.829792,-0.872104,-0.198677,42.363015,12.116131,-43.508934,-0.212109,0.142458,0.000000,-0.124821,-0.834623,0.000000
2.670000,-1.091498,-0.279098,-1.319106,0.668808,0.466196,0.039228,-1.058573,-1.720498,1.934666,7.243213,-0.749487,-0.640562,40.288759,12.407854,-44.856772,-0.213228,0.133615,0.000000,-0.098688,-0.893448,-0.000000
2.680000,-1.084862,-0.274523,-1.318617,0.658591,0.448956,0.058535,-0.984163,-1.727367,1.925996,7.634934,-0.623933,-1.095556,38.024447,12.703631,-46.127888,-0.214079,0.124188,0.000000,-0.071291,-0.948472,-0.000000
2.690000,-1.078324,-0.270120,-1.317936,0.649137,0.431653,0.077733,-0.905953,-1.732967,1.912714,8.003099,-0.495402,-1.562804,35.579163,13.003338,-47.304239,-0.214650,0.114218,0.000000,-0.042725,-0.999174,-0.000000
2.700000,-1.071877,-0.265890,-1.317063,0.640484,0.414301,0.096774,-0.824186,-1.737265,1.894702,8.345944,-0.363854,-2.041265,32.961990,13.306858,-48.367783,-0.214930,0.103752,0.000000,-0.013113,-1.045051,0.000000
2.710000,-1.065511,-0.261834,-1.316001,0.632664,0.396912,0.115611,-0.739096,-1.740240,1.871849,8.664317,-0.229887,-2.530312,30.118329,13.630114,-49.285598,-0.214910,0.092839,0.000000,0.017327,-1.085951,0.000000
2.720000,-1.059220,-0.257952,-1.314752,0.625711,0.379500,0.134195,-0.650997,-1.741852,1.844068,8.950667,-0.091962,-3.027151,27.128745,13.954977,-50.056343,-0.214581,0.081541,0.000000,0.048576,-1.120708,0.000000
2.730000,-1.052994,-0.254244,-1.313318,0.619653,0.362080,0.152476,-0.560185,-1.742069,1.811283,9.206462,0.049210,-3.530895,24.010120,14.279360,-50.663797,-0.213937,0.069920,0.000000,0.080355,-1.149326,-0.000000
2.740000,-1.046824,-0.250710,-1.311703,0.614515,0.344664,0.170404,-0.466973,-1.740857,1.773433,9.430496,0.193616,-4.039829,20.779336,14.601179,-51.091740,-0.212973,0.058041,0.000000,0.112438,-1.171530,-0.000000
2.750000,-1.040701,-0.247350,-1.309911,0.610320,0.327267,0.187927,-0.371684,-1.738186,1.730475,9.621731,0.341219,-4.552077,17.453276,14.918348,-51.323953,-0.211688,0.045971,0.000000,0.144586,-1.187123,-0.000000
2.760000,-1.034615,-0.244165,-1.307946,0.607087,0.309905,0.204997,-0.274632,-1.734028,1.682360,9.781005,0.491466,-5.068122,14.005759,15.241285,-51.280544,-0.210082,0.033777,0.000000,0.176556,-1.196207,0.000000
2.770000,-1.028556,-0.241152,-1.305813,0.604832,0.292592,0.221558,-0.176180,-1.728346,1.629118,9.903581,0.645452,-5.579796,10.502002,15.553872,-51.016759,-0.208158,0.021532,0.000000,0.208087,-1.198259,-0.000000
2.780000,-1.022515,-0.238312,-1.303517,0.603567,0.275344,0.237562,-0.076678,-1.721109,1.570776,9.990931,0.802497,-6.087695,6.964161,15.852491,-50.524175,-0.205922,0.009306,0.000000,0.238936,-1.193615,-0.000000
2.790000,-1.016481,-0.235645,-1.301064,0.603300,0.258175,0.252957,0.023520,-1.712286,1.507384,10.042825,0.962443,-6.589489,3.414389,16.133527,-49.794367,-0.203382,-0.002833,0.000000,0.268870,-1.182455,-0.000000
2.800000,-1.010445,-0.233149,-1.298460,0.604038,0.241103,0.267693,0.124060,-1.701851,1.439015,10.059253,1.125096,-7.082763,-0.125158,16.393364,-48.818912,-0.200549,-0.014819,0.000000,0.297669,-1.165052,-0.000000
2.810000,-1.004397,-0.230823,-1.295712,0.605782,0.224144,0.281722,0.224587,-1.689777,1.365725,10.040389,1.290134,-7.568794,-3.631309,16.630749,-47.494069,-0.197433,-0.026590,0.000000,0.325208,-1.141735,-0.000000
2.820000,-0.998326,-0.228665,-1.292828,0.608529,0.207313,0.294993,0.324752,-1.676041,1.287687,9.986763,1.457510,-8.036064,-7.083050,16.839414,-45.918402,-0.194049,-0.038088,0.000000,0.351141,-1.112970,-0.000000
2.830000,-0.992223,-0.226676,-1.289815,0.612274,0.190629,0.307461,0.424209,-1.660620,1.205060,9.898983,1.626813,-8.486336,-10.458351,17.015452,-44.095159,-0.190415,-0.049258,0.000000,0.375416,-1.079229,0.000000
2.840000,-0.986078,-0.224852,-1.286682,0.617009,0.174106,0.319080,0.522621,-1.643499,1.118025,9.777924,1.797697,-8.917152,-13.735182,17.154957,-42.027586,-0.186547,-0.060054,0.000000,0.397928,-1.041042,0.000000
2.850000,-0.979880,-0.223193,-1.283437,0.622722,0.157764,0.329807,0.619660,-1.624663,1.026790,9.624681,1.969778,-9.326085,-16.891512,17.254023,-39.718932,-0.182463,-0.070434,0.000000,0.418602,-0.998974,-0.000000
2.860000,-0.973620,-0.221696,-1.280089,0.629398,0.141619,0.339603,0.714987,-1.604096,0.931545,9.438345,2.143077,-9.714402,-19.849137,17.297456,-37.079901,-0.178180,-0.080357,0.000000,0.437506,-0.953331,-0.000000
2.870000,-0.967289,-0.220360,-1.276648,0.637016,0.125688,0.348427,0.808331,-1.581800,0.832594,9.225716,2.316074,-10.071070,-22.649080,17.294022,-34.217616,-0.173719,-0.089798,0.000000,0.454349,-0.905362,0.000000
2.880000,-0.960877,-0.219182,-1.273124,0.645557,0.109989,0.356244,0.899411,-1.557776,0.730222,8.985940,2.488793,-10.398059,-25.276188,17.241197,-31.146654,-0.169099,-0.098734,0.000000,0.469281,-0.855336,0.000000
2.890000,-0.954374,-0.218159,-1.269526,0.654996,0.094538,0.363021,0.987965,-1.532027,0.624738,8.720819,2.660725,-10.693356,-27.715310,17.136457,-27.881596,-0.164340,-0.107148,0.000000,0.482344,-0.803812,0.000000
2.900000,-0.947774,-0.217290,-1.265867,0.665307,0.079354,0.368729,1.073749,-1.504565,0.516467,8.432310,2.831340,-10.955092,-29.951295,16.977279,-24.437021,-0.159459,-0.115027,0.000000,0.493594,-0.751325,-0.000000
2.910000,-0.941066,-0.216571,-1.262155,0.676462,0.064452,0.373343,1.156499,-1.475398,0.405729,8.118753,3.000888,-11.183836,-31.873814,16.740769,-20.769680,-0.154472,-0.122362,0.000000,0.503216,-0.697965,-0.000000
2.920000,-0.934242,-0.216000,-1.258404,0.688427,0.049851,0.376838,1.236064,-1.444557,0.292915,7.791325,3.166875,-11.372590,-33.574546,16.447269,-16.959061,-0.149400,-0.129155,0.000000,0.511030,-0.645193,-0.000000
2.930000,-0.927294,-0.215573,-1.254623,0.701172,0.035567,0.379195,1.312273,-1.412071,0.178406,7.448013,3.329643,-11.522612,-35.049994,16.096749,-13.026823,-0.144257,-0.135413,0.000000,0.517266,-0.592947,-0.000000
2.940000,-0.920216,-0.215288,-1.250824,0.714661,0.021615,0.380401,1.384979,-1.377976,0.062596,7.091087,3.488620,-11.632793,-36.296659,15.689181,-8.994627,-0.139059,-0.141142,0.000000,0.522028,-0.541595,0.000000
2.950000,-0.912999,-0.215140,-1.247018,0.728859,0.008012,0.380444,1.454057,-1.342313,-0.054114,6.722854,3.643236,-11.702243,-37.311045,15.224535,-4.884131,-0.133821,-0.146355,0.000000,0.525425,-0.491460,-0.000000
2.960000,-0.905636,-0.215126,-1.243219,0.743731,-0.005226,0.379318,1.519363,-1.305115,-0.171316,6.341649,3.794082,-11.730718,-37.988540,14.673449,-0.706121,-0.128554,-0.151061,0.000000,0.527674,-0.442434,0.000000
2.970000,-0.898122,-0.215243,-1.239436,0.759235,-0.018085,0.377018,1.580871,-1.266451,-0.288588,5.959325,3.937836,-11.716739,-38.439141,14.068820,3.505536,-0.123272,-0.155284,0.000000,0.528619,-0.395691,-0.000000
2.980000,-0.890450,-0.215487,-1.235682,0.775336,-0.030551,0.373547,1.638538,-1.226380,-0.405510,5.573593,4.075292,-11.660571,-38.671732,13.414210,7.727850,-0.117985,-0.159042,0.000000,0.528494,-0.350965,-0.000000
2.990000,-0.882613,-0.215853,-1.231969,0.791993,-0.042609,0.368910,1.692339,-1.184968,-0.521659,5.186588,4.205966,-11.562223,-38.695198,12.713181,11.937828,-0.112705,-0.162359,0.000000,0.527404,-0.308402,-0.000000
3.000000,-0.874608,-0.216337,-1.228308,0.809170,-0.054246,0.363118,1.742272,-1.142284,-0.636614,4.800356,4.329412,-11.421933,-38.518422,11.969296,16.112479,-0.107440,-0.165258,0.000000,0.525449,-0.268108,-0.000000
3.010000,-0.866428,-0.216936,-1.224710,0.826827,-0.065450,0.356183,1.788325,-1.098401,-0.749945,4.414123,4.445524,-11.238864,-38.081232,11.178451,20.195872,-0.102198,-0.167758,0.000000,0.522736,-0.229934,0.000000
3.020000,-0.858070,-0.217645,-1.221188,0.844924,-0.076210,0.348125,1.830572,-1.053401,-0.861257,4.036229,4.553208,-11.016802,-37.470023,10.352814,24.201988,-0.096987,-0.169889,0.000000,0.519325,-0.194469,0.000000
3.030000,-0.849529,-0.218459,-1.217751,0.863426,-0.086515,0.338966,1.869073,-1.007365,-0.970149,3.665245,4.652480,-10.755145,-36.702135,9.496887,28.111869,-0.091814,-0.171674,0.000000,0.515313,-0.161463,-0.000000
3.040000,-0.840800,-0.219374,-1.214412,0.882294,-0.096354,0.328732,1.903905,-0.960380,-1.076231,3.302651,4.743059,-10.454949,-35.794908,8.615173,31.906556,-0.086683,-0.173140,0.000000,0.510777,-0.130904,-0.000000
3.050000,-0.831882,-0.220384,-1.211180,0.901492,-0.105720,0.317452,1.935158,-0.912534,-1.179124,2.949753,4.824712,-10.117461,-34.765682,7.712173,35.567092,-0.081600,-0.174310,0.000000,0.505788,-0.102755,-0.000000
3.060000,-0.822770,-0.221486,-1.208066,0.920985,-0.114603,0.305160,1.962926,-0.863912,-1.278438,2.606753,4.897644,-9.741996,-33.608240,6.782351,39.020929,-0.076568,-0.175209,0.000000,0.500432,-0.076915,-0.000000
3.070000,-0.813461,-0.222675,-1.205080,0.940739,-0.122996,0.291895,1.987334,-0.814612,-1.373851,2.276818,4.960770,-9.335202,-32.366361,5.841475,42.309260,-0.071592,-0.175861,0.000000,0.494723,-0.053428,-0.000000
3.080000,-0.803954,-0.223945,-1.202232,0.960721,-0.130893,0.277697,2.008505,-0.764728,-1.465035,1.959640,5.014456,-8.896404,-31.060271,4.895276,45.419688,-0.066675,-0.176288,0.000000,0.488738,-0.032153,0.000000
3.090000,-0.794246,-0.225291,-1.199529,0.980899,-0.138289,0.262610,2.026571,-0.714355,-1.551679,1.655760,5.058677,-8.427442,-29.710193,3.949486,48.339817,-0.061818,-0.176513,0.000000,0.482529,-0.012989,0.000000
3.100000,-0.784335,-0.226709,-1.196982,1.001243,-0.145179,0.246680,2.041666,-0.663586,-1.633490,1.365516,5.093466,-7.930283,-28.336352,3.009836,51.057249,-0.057025,-0.176555,0.000000,0.476145,0.004173,0.000000
3.110000,-0.774221,-0.228193,-1.194598,1.021723,-0.151560,0.229957,2.053940,-0.612514,-1.710174,1.090243,5.119107,-7.404871,-26.989241,2.077167,53.505461,-0.052296,-0.176437,0.000000,0.469639,0.019321,0.000000
3.120000,-0.763901,-0.229738,-1.192386,1.042312,-0.157428,0.212494,2.063515,-0.561235,-1.781510,0.827039,5.135289,-6.858493,-25.655109,1.162697,55.732812,-0.047632,-0.176174,0.000000,0.463037,0.032901,-0.000000
3.130000,-0.753374,-0.231340,-1.190351,1.062985,-0.162784,0.194345,2.070525,-0.509839,-1.847274,0.577042,5.142443,-6.290971,-24.350471,0.272758,57.733533,-0.043035,-0.175783,0.000000,0.456387,0.044893,-0.000000
3.140000,-0.742641,-0.232992,-1.188501,1.083715,-0.167625,0.175567,2.075099,-0.458415,-1.907266,0.339876,5.140847,-5.704598,-23.091847,-0.586322,59.501856,-0.038505,-0.175280,0.000000,0.449728,0.055433,-0.000000
3.150000,-0.731700,-0.234691,-1.186841,1.104479,-0.171952,0.156219,2.077363,-0.407050,-1.961311,0.114997,5.130840,-5.101727,-21.895752,-1.408212,61.032013,-0.034040,-0.174678,0.000000,0.443100,0.064664,-0.000000
3.160000,-0.720551,-0.236430,-1.185378,1.125254,-0.175766,0.136361,2.077465,-0.355841,-2.009232,-0.095779,5.111369,-4.482791,-20.842451,-2.149753,62.268248,-0.029644,-0.173993,0.000000,0.436417,0.072497,0.000000
3.170000,-0.709195,-0.238204,-1.184116,1.146020,-0.179069,0.116055,2.075481,-0.304846,-2.050929,-0.299299,5.086352,-3.854943,-19.876909,-2.845954,63.260901,-0.025312,-0.173231,0.000000,0.430014,0.079641,-0.000000
3.180000,-0.697631,-0.240009,-1.183058,1.166757,-0.181864,0.095363,2.071509,-0.254136,-2.086302,-0.493638,5.054607,-3.218384,-19.007838,-3.494997,64.010323,-0.021043,-0.172402,0.000000,0.423781,0.085977,-0.000000
3.190000,-0.685860,-0.241840,-1.182209,1.187444,-0.184153,0.074350,2.065636,-0.203775,-2.115276,-0.679806,5.016616,-2.575546,-18.243950,-4.095062,64.516867,-0.016835,-0.171513,0.000000,0.417749,0.091652,0.000000
3.200000,-0.673882,-0.243691,-1.181572,1.208063,-0.185941,0.053079,2.057937,-0.153823,-2.137800,-0.858897,4.972876,-1.928855,-17.593956,-4.644328,64.780884,-0.012687,-0.170570,0.000000,0.411947,0.096814,0.000000
3.210000,-0.661699,-0.245557,-1.181149,1.228596,-0.187231,0.031615,2.048513,-0.104340,-2.153834,-1.028857,4.923490,-1.279459,-17.148335,-5.130500,64.770491,-0.008596,-0.169581,0.000000,0.406368,0.101334,0.000000
3.220000,-0.649311,-0.247434,-1.180940,1.249027,-0.188029,0.010024,2.037373,-0.055369,-2.163394,-1.198618,4.869975,-0.632799,-16.824020,-5.563517,64.522223,-0.004559,-0.168544,0.000000,0.401120,0.106029,0.000000
3.230000,-0.636719,-0.249316,-1.180948,1.269338,-0.188340,-0.011631,2.024549,-0.006954,-2.166503,-1.365737,4.812398,0.010207,-16.619709,-5.942842,64.040380,-0.000572,-0.167460,0.000000,0.396188,0.110727,-0.000000
3.240000,-0.623924,-0.251199,-1.181173,1.289512,-0.188170,-0.033285,2.010063,0.040868,-2.163209,-1.531408,4.751299,0.647244,-16.534103,-6.267938,63.329262,0.003366,-0.166329,0.000000,0.391594,0.115570,-0.000000
3.250000,-0.610929,-0.253078,-1.181614,1.309534,-0.187525,-0.054874,1.993922,0.088062,-2.153585,-1.696810,4.687222,1.276042,-16.565901,-6.538268,62.393167,0.007261,-0.165148,0.000000,0.387360,0.120699,0.000000
3.260000,-0.597734,-0.254948,-1.182270,1.329384,-0.186411,-0.076336,1.976155,0.134597,-2.137712,-1.860204,4.620042,1.895436,-16.787275,-6.736228,61.209522,0.011114,-0.163916,0.000000,0.383453,0.126001,0.000000
3.270000,-0.584342,-0.256804,-1.183140,1.349050,-0.184835,-0.097608,1.956709,0.180458,-2.115720,-2.029629,4.551915,2.500722,-17.114455,-6.880437,59.812790,0.014931,-0.162626,0.000000,0.380023,0.132210,0.000000
3.280000,-0.570754,-0.258643,-1.184221,1.368513,-0.182804,-0.118631,1.935550,0.225631,-2.087748,-2.202811,4.482607,3.091007,-17.537145,-6.972449,58.210562,0.018716,-0.161269,0.000000,0.377027,0.139173,-0.000000
3.290000,-0.556972,-0.260459,-1.185511,1.387755,-0.180325,-0.139344,1.912637,0.270108,-2.053956,-2.380656,4.412635,3.664274,-18.045046,-7.013817,56.410429,0.022473,-0.159839,0.000000,0.374481,0.147012,-0.000000
3.300000,-0.543000,-0.262248,-1.187007,1.406760,-0.177404,-0.159691,1.887919,0.313883,-2.014525,-2.563962,4.342495,4.218581,-18.627862,-7.006094,54.419981,0.026207,-0.158325,0.000000,0.372400,0.155845,-0.000000
3.310000,-0.528838,-0.264006,-1.188704,1.425507,-0.174049,-0.179617,1.861353,0.356947,-1.969641,-2.751931,4.271627,4.753231,-19.313125,-6.924467,52.217340,0.029922,-0.156719,0.000000,0.370713,0.165645,0.000000
3.320000,-0.514490,-0.265728,-1.190598,1.443980,-0.170267,-0.199067,1.832856,0.399319,-1.919537,-2.948701,4.202971,5.263672,-20.048076,-6.800082,49.843173,0.033623,-0.155006,0.000000,0.369634,0.176848,-0.000000
3.330000,-0.499959,-0.267410,-1.192683,1.462157,-0.166065,-0.217991,1.802354,0.441011,-1.864450,-3.153008,4.135752,5.749560,-20.817787,-6.637722,47.308678,0.037316,-0.153175,0.000000,0.369073,0.189395,0.000000
3.340000,-0.485248,-0.269047,-1.194956,1.480020,-0.161449,-0.236340,1.769770,0.482040,-1.804633,-3.365123,4.070327,6.209348,-21.607328,-6.442168,44.625055,0.041006,-0.151211,0.000000,0.369035,0.203373,-0.000000
3.350000,-0.470360,-0.270637,-1.197408,1.497546,-0.156426,-0.254068,1.735025,0.522425,-1.740355,-3.585171,4.007004,6.641601,-22.401770,-6.218200,41.803501,0.044699,-0.149099,0.000000,0.369519,0.218858,0.000000
3.360000,-0.455299,-0.272175,-1.200035,1.514713,-0.151003,-0.271133,1.698043,0.562188,-1.671887,-3.812913,3.946021,7.045948,-23.191535,-5.970079,38.831157,0.048398,-0.146825,0.000000,0.370522,0.235886,0.000000
3.370000,-0.440067,-0.273656,-1.202828,1.531499,-0.145185,-0.287494,1.658741,0.601354,-1.599537,-4.048677,3.887641,7.418923,-23.955687,-5.703172,35.746226,0.052111,-0.144371,0.000000,0.372027,0.254583,-0.000000
3.380000,-0.424670,-0.275077,-1.205782,1.547880,-0.138978,-0.303112,1.617044,0.639950,-1.523613,-4.291890,3.832004,7.760545,-24.678643,-5.422324,32.562853,0.055841,-0.141720,0.000000,0.374023,0.274956,0.000000
3.390000,-0.409111,-0.276434,-1.208888,1.563831,-0.132388,-0.317955,1.572880,0.678004,-1.444433,-4.542061,3.779225,8.069899,-25.344820,-5.132379,29.295181,0.059593,-0.138857,0.000000,0.376489,0.297028,-0.000000
3.400000,-0.393395,-0.277724,-1.212139,1.579329,-0.125419,-0.331991,1.526182,0.715544,-1.362325,-4.798545,3.729371,8.346214,-25.938632,-4.838184,25.957357,0.063372,-0.135763,0.000000,0.379397,0.320810,-0.000000
3.410000,-0.377526,-0.278941,-1.215525,1.594347,-0.118078,-0.345193,1.476875,0.752602,-1.277614,-5.061961,3.682564,8.589528,-26.408603,-4.547223,22.546632,0.067182,-0.132421,0.000000,0.382729,0.346409,0.000000
3.420000,-0.361510,-0.280084,-1.219040,1.608858,-0.110369,-0.357536,1.424929,0.789205,-1.190649,-5.327989,3.638527,8.797768,-26.779438,-4.261379,19.096110,0.071028,-0.128814,0.000000,0.386410,0.373514,0.000000
3.430000,-0.345351,-0.281147,-1.222673,1.622836,-0.102296,-0.369000,1.370305,0.825382,-1.101774,-5.597182,3.597304,8.971372,-27.039945,-3.985172,15.622007,0.074911,-0.124926,0.000000,0.390411,0.402208,0.000000
3.440000,-0.329055,-0.282129,-1.226417,1.636255,-0.093863,-0.379566,1.312978,0.861160,-1.011337,-5.868383,3.558777,9.110184,-27.178938,-3.723125,12.140533,0.078837,-0.120742,0.000000,0.394675,0.432418,-0.000000
3.450000,-0.312627,-0.283024,-1.230261,1.649087,-0.085074,-0.389222,1.252935,0.896566,-0.919686,-6.140319,3.522780,9.214212,-27.185225,-3.479759,8.667903,0.082806,-0.116246,0.000000,0.399142,0.464049,0.000000
3.460000,-0.296075,-0.283829,-1.234198,1.661305,-0.075933,-0.397957,1.190147,0.931629,-0.827169,-6.414058,3.489627,9.283540,-26.985724,-3.272809,5.222493,0.086821,-0.111422,0.000000,0.403790,0.497210,0.000000
3.470000,-0.279403,-0.284541,-1.238217,1.672882,-0.066442,-0.405764,1.124663,0.966365,-0.734130,-6.682305,3.457826,9.318702,-26.638720,-3.091966,1.818087,0.090882,-0.106261,0.000000,0.408423,0.531210,0.000000
3.480000,-0.262620,-0.285157,-1.242310,1.683790,-0.056606,-0.412639,1.056515,1.000791,-0.640908,-6.946329,3.427691,9.320092,-26.140600,-2.940134,-1.529367,0.094989,-0.100751,0.000000,0.413012,0.566132,0.000000
3.490000,-0.245730,-0.285672,-1.246467,1.694003,-0.046427,-0.418583,0.985755,1.034923,-0.547838,-7.204601,3.398917,9.288358,-25.487757,-2.820218,-4.803919,0.099141,-0.094884,0.000000,0.417465,0.601780,0.000000
3.500000,-0.228742,-0.286084,-1.250679,1.703496,-0.035909,-0.423598,0.912448,1.068773,-0.455248,-7.455556,3.371171,9.224309,-24.676577,-2.735121,-7.989623,0.103337,-0.088654,0.000000,0.421684,0.637929,-0.000000
3.510000,-0.211663,-0.286389,-1.254936,1.712245,-0.025053,-0.427690,0.836644,1.102357,-0.363468,-7.700340,3.344822,9.127835,-23.634059,-2.706273,-11.043257,0.107575,-0.082053,0.000000,0.425627,0.674607,-0.000000
3.520000,-0.194500,-0.286584,-1.259229,1.720222,-0.013863,-0.430870,0.758478,1.135670,-0.272792,-7.930812,3.317744,9.002618,-22.434483,-2.715783,-13.979485,0.111848,-0.075084,0.000000,0.429039,0.710885,-0.000000
3.530000,-0.177261,-0.286665,-1.263550,1.727407,-0.002341,-0.433150,0.678070,1.168711,-0.183512,-8.148523,3.290377,8.848678,-21.082735,-2.764289,-16.785699,0.116153,-0.067747,0.000000,0.431881,0.746776,0.000000
3.540000,-0.159954,-0.286630,-1.267889,1.733777,0.009510,-0.434546,0.595555,1.201475,-0.095909,-8.351975,3.262326,8.667379,-19.583702,-2.852425,-19.449289,0.120484,-0.060049,0.000000,0.434042,0.781969,0.000000
3.550000,-0.142588,-0.286474,-1.272238,1.739312,0.021688,-0.435075,0.511083,1.233954,-0.010250,-8.539722,3.233194,8.460210,-17.942271,-2.980829,-21.957648,0.124832,-0.051997,0.000000,0.435413,0.816139,-0.000000
3.560000,-0.125171,-0.286195,-1.276588,1.743993,0.034188,-0.434758,0.424794,1.266140,0.073193,-8.712615,3.203169,8.226807,-16.106444,-3.165172,-24.248178,0.129189,-0.043600,0.000000,0.435925,0.849185,0.000000
3.570000,-0.107711,-0.285789,-1.280931,1.747803,0.047009,-0.433619,0.336894,1.298010,0.154212,-8.863972,3.170430,7.973596,-14.144959,-3.389212,-26.364380,0.133547,-0.034876,0.000000,0.435391,0.880195,0.000000
3.580000,-0.090218,-0.285254,-1.285258,1.750726,0.060147,-0.431682,0.247581,1.329541,0.232597,-8.995135,3.135256,7.700122,-12.069667,-3.651744,-28.299766,0.137894,-0.025845,0.000000,0.433762,0.909095,0.000000
3.590000,-0.072700,-0.284585,-1.289562,1.752750,0.073599,-0.428976,0.157063,1.360706,0.308153,-9.105025,3.097270,7.408225,-9.892422,-3.951561,-30.047848,0.142218,-0.016528,0.000000,0.430958,0.935550,-0.000000
3.600000,-0.055166,-0.283781,-1.293835,1.753864,0.087360,-0.425529,0.065555,1.391476,0.380706,-9.192683,3.056105,7.099811,-7.625076,-4.287458,-31.602139,0.146509,-0.006952,0.000000,0.426908,0.959237,-0.000000
3.610000,-0.037625,-0.282837,-1.298070,1.754059,0.101427,-0.421372,-0.026726,1.421829,0.450074,-9.258335,3.012551,6.774389,-5.252470,-4.687173,-32.893983,0.150753,0.002855,0.000000,0.421639,0.979963,-0.000000
3.620000,-0.020088,-0.281751,-1.302260,1.753328,0.115795,-0.416538,-0.119531,1.451713,0.516154,-9.298728,2.963553,6.439820,-2.816775,-5.117013,-33.986672,0.154937,0.012861,0.000000,0.414922,0.997180,-0.000000
3.630000,-0.002562,-0.280520,-1.306399,1.751668,0.130459,-0.411060,-0.212618,1.481085,0.578838,-9.314511,2.910126,6.095315,-0.333152,-5.572228,-34.881333,0.159047,0.023029,0.000000,0.406830,1.010774,0.000000
3.640000,0.014943,-0.279141,-1.310479,1.749076,0.145415,-0.404973,-0.305738,1.509900,0.638034,-9.305281,2.852040,5.742849,2.183240,-6.048069,-35.579089,0.163069,0.033322,0.000000,0.397367,1.020537,-0.000000
3.650000,0.032417,-0.277611,-1.314496,1.745554,0.160655,-0.398311,-0.398640,1.538110,0.693675,-9.270787,2.789112,5.384386,4.717240,-6.539785,-36.081066,0.166990,0.043700,0.000000,0.386557,1.026303,0.000000
3.660000,0.049851,-0.275927,-1.318444,1.741105,0.176175,-0.391111,-0.491068,1.565656,0.745685,-9.210806,2.720349,5.019680,7.250587,-7.020953,-36.332891,0.170794,0.054123,0.000000,0.374309,1.027924,0.000000
3.670000,0.067236,-0.274086,-1.322317,1.735735,0.191966,-0.383409,-0.582771,1.592500,0.794063,-9.125678,2.647695,4.655873,9.771602,-7.511151,-36.397982,0.174472,0.064548,0.000000,0.361002,1.025394,0.000000
3.680000,0.084562,-0.272087,-1.326110,1.729452,0.208023,-0.375242,-0.673498,1.618594,0.838803,-9.015464,2.570103,4.292316,12.265505,-8.008283,-36.284259,0.178010,0.074933,0.000000,0.346563,1.018665,0.000000
3.690000,0.101822,-0.269925,-1.329820,1.722269,0.224336,-0.366645,-0.762998,1.643886,0.879916,-8.880508,2.487513,3.930758,14.717517,-8.510255,-35.999642,0.181400,0.085234,0.000000,0.331083,1.007766,-0.000000
3.700000,0.119005,-0.267599,-1.333442,1.714197,0.240897,-0.357655,-0.851027,1.668327,0.917430,-8.721303,2.399888,3.572867,17.112857,-9.014970,-35.552051,0.184629,0.095410,0.000000,0.314658,0.992777,-0.000000
3.710000,0.136103,-0.265106,-1.336972,1.705254,0.257699,-0.348308,-0.937330,1.691871,0.951375,-8.537093,2.307639,3.218771,19.401479,-9.531133,-34.912471,0.187690,0.105418,0.000000,0.297415,0.973649,0.000000
3.720000,0.153107,-0.262444,-1.340407,1.695457,0.274731,-0.338639,-1.021694,1.714463,0.981829,-8.331972,2.209757,2.873444,21.608187,-10.044525,-34.130280,0.190575,0.115219,0.000000,0.279417,0.950957,0.000000
3.730000,0.170009,-0.259611,-1.343744,1.684827,0.291985,-0.328683,-1.103898,1.736050,1.008872,-8.105237,2.106769,2.536599,23.722519,-10.551729,-33.217922,0.193276,0.124775,0.000000,0.260802,0.924713,0.000000
3.740000,0.186801,-0.256604,-1.346980,1.673387,0.309449,-0.318472,-1.183730,1.756581,1.032594,-7.857864,1.998755,2.209478,25.734013,-11.049327,-32.187841,0.195789,0.134052,0.000000,0.241682,0.895152,0.000000
3.750000,0.203474,-0.253421,-1.350113,1.661161,0.327113,-0.308041,-1.260990,1.776008,1.053098,-7.590934,1.885826,1.893193,27.632207,-11.533900,-31.052478,0.198109,0.143016,0.000000,0.222170,0.862534,0.000000
3.760000,0.220021,-0.250061,-1.353140,1.648176,0.344965,-0.297421,-1.335467,1.794284,1.070494,-7.303713,1.768329,1.588419,29.358163,-12.007025,-29.816234,0.200232,0.151635,0.000000,0.202398,0.826924,-0.000000
3.770000,0.236435,-0.246521,-1.356060,1.634461,0.362994,-0.286641,-1.407009,1.811359,1.084909,-7.002034,1.645977,1.296774,30.955830,-12.459677,-28.500580,0.202156,0.159884,0.000000,0.182418,0.789133,-0.000000
3.780000,0.252708,-0.242801,-1.358872,1.620046,0.381188,-0.275732,-1.475456,1.827189,1.096474,-6.685039,1.519217,1.018627,32.420685,-12.887828,-27.118945,0.203880,0.167738,0.000000,0.162350,0.749216,0.000000
3.790000,0.268834,-0.238897,-1.361575,1.604962,0.399534,-0.264721,-1.540663,1.841730,1.105328,-6.354079,1.388315,0.754571,33.748200,-13.287447,-25.684757,0.205403,0.175178,0.000000,0.142286,0.707475,0.000000
3.800000,0.284805,-0.234809,-1.364167,1.589244,0.418018,-0.253634,-1.602496,1.854942,1.111614,-6.010548,1.253577,0.505063,34.933849,-13.654506,-24.211444,0.206726,0.182186,0.000000,0.122307,0.664209,0.000000
3.810000,0.300617,-0.230536,-1.366647,1.572924,0.436629,-0.242497,-1.660819,1.866774,1.115488,-5.654253,1.113851,0.271240,35.931765,-13.947193,-22.732968,0.207848,0.188745,0.000000,0.102354,0.619552,0.000000
3.820000,0.316262,-0.226077,-1.369016,1.556039,0.455350,-0.231332,-1.715550,1.877210,1.117088,-5.290553,0.973066,0.051369,36.783825,-14.203886,-21.239709,0.208774,0.194847,0.000000,0.082815,0.574169,-0.000000
3.830000,0.331736,-0.221429,-1.371274,1.538625,0.474168,-0.220162,-1.766604,1.886227,1.116565,-4.919061,0.829892,-0.153541,37.490568,-14.425182,-19.742580,0.209506,0.200481,0.000000,0.063590,0.528143,0.000000
3.840000,0.347033,-0.216593,-1.373420,1.520719,0.493069,-0.209007,-1.813910,1.893801,1.114067,-4.541225,0.684679,-0.343506,38.052528,-14.611678,-18.252497,0.210047,0.205644,0.000000,0.044719,0.481727,-0.000000
3.850000,0.362149,-0.211567,-1.375454,1.502359,0.512039,-0.197887,-1.857412,1.899915,1.109744,-4.158491,0.537772,-0.518651,38.470242,-14.763970,-16.780372,0.210401,0.210332,0.000000,0.026234,0.435153,0.000000
3.860000,0.377079,-0.206352,-1.377378,1.483583,0.531063,-0.186819,-1.897055,1.904555,1.103758,-3.771025,0.389747,-0.677834,38.712059,-14.888618,-15.371859,0.210574,0.214542,0.000000,0.008219,0.388536,-0.000000
3.870000,0.391819,-0.200946,-1.379191,1.464431,0.550125,-0.175817,-1.932827,1.907706,1.096234,-3.383277,0.240378,-0.824655,38.814644,-14.979526,-13.998879,0.210567,0.218279,0.000000,-0.009460,0.342321,0.000000
3.880000,0.406366,-0.195349,-1.380894,1.444940,0.569212,-0.164899,-1.964719,1.909360,1.087310,-2.995181,0.090270,-0.957952,38.782476,-15.036560,-12.668091,0.210386,0.221545,0.000000,-0.026724,0.296569,0.000000
3.890000,0.420717,-0.189562,-1.382489,1.425149,0.588308,-0.154075,-1.992734,1.909510,1.077119,-2.608062,-0.060239,-1.078180,38.620031,-15.059587,-11.386155,0.210034,0.224346,0.000000,-0.043570,0.251440,-0.000000
3.900000,0.434868,-0.183583,-1.383976,1.405098,0.607397,-0.143360,-2.016888,1.908155,1.065788,-2.223199,-0.210808,-1.185861,38.331790,-15.048474,-10.159732,0.209516,0.226689,0.000000,-0.059999,0.207075,-0.000000
3.910000,0.448818,-0.177414,-1.385357,1.384824,0.626466,-0.132763,-2.037203,1.905291,1.053458,-1.841214,-0.361496,-1.280072,37.906663,-14.992939,-9.033628,0.208835,0.228583,0.000000,-0.076019,0.163574,0.000000
3.920000,0.462564,-0.171054,-1.386632,1.364366,0.645498,-0.122294,-2.053728,1.900927,1.040223,-1.464755,-0.511009,-1.365044,37.366601,-14.904239,-7.971686,0.207997,0.230037,0.000000,-0.091622,0.121115,-0.000000
3.930000,0.476105,-0.164504,-1.387803,1.343762,0.664479,-0.111962,-2.066518,1.895074,1.026191,-1.094244,-0.659474,-1.439726,36.717986,-14.783485,-6.975895,0.207004,0.231063,0.000000,-0.106821,0.079763,0.000000
3.940000,0.489439,-0.157765,-1.388872,1.323048,0.683395,-0.101773,-2.075637,1.887742,1.011461,-0.730735,-0.806576,-1.504789,35.967202,-14.631785,-6.048242,0.205862,0.231671,0.000000,-0.121626,0.039600,0.000000
3.950000,0.502566,-0.150836,-1.389839,1.302261,0.702229,-0.091734,-2.081159,1.878948,0.996125,-0.375219,-0.952011,-1.560925,35.120634,-14.450248,-5.190718,0.204573,0.231876,0.000000,-0.136044,0.000700,-0.000000
3.960000,0.515484,-0.143720,-1.390707,1.281437,0.720969,-0.081852,-2.083169,1.868707,0.980283,-0.028471,-1.095632,-1.607640,34.180878,-14.236276,-4.435724,0.203142,0.231690,0.000000,-0.150076,-0.036862,-0.000000
3.970000,0.528194,-0.136417,-1.391477,1.260609,0.739599,-0.072131,-2.081761,1.857043,0.963996,0.308292,-1.236811,-1.648516,33.158569,-13.995140,-3.751112,0.201573,0.231128,0.000000,-0.163755,-0.073067,0.000000
3.980000,0.540696,-0.128929,-1.392150,1.239812,0.758105,-0.062574,-2.077039,1.843979,0.947334,0.634448,-1.375449,-1.682891,32.060553,-13.728404,-3.135148,0.199868,0.230204,0.000000,-0.177077,-0.107853,-0.000000
3.990000,0.552991,-0.121256,-1.392729,1.219079,0.776474,-0.053185,-2.069110,1.829543,0.930358,0.949274,-1.511299,-1.711442,30.893678,-13.437630,-2.586095,0.198032,0.228932,0.000000,-0.190047,-0.141183,-0.000000
4.000000,0.565078,-0.113400,-1.393214,1.198441,0.794691,-0.043967,-2.058093,1.813764,0.913123,1.252115,-1.644127,-1.734830,29.664790,-13.124382,-2.102220,0.196068,0.227329,0.000000,-0.202673,-0.173024,0.000000
4.010000,0.576960,-0.105362,-1.393608,1.177927,0.812745,-0.034924,-2.044111,1.796671,0.895684,1.542234,-1.773767,-1.753001,28.384580,-12.788951,-1.699392,0.193980,0.225410,0.000000,-0.214948,-0.203318,0.000000
4.020000,0.588637,-0.097146,-1.393913,1.157568,0.830621,-0.026055,-2.027292,1.778300,0.878075,1.819473,-1.899899,-1.768230,27.055581,-12.434328,-1.356115,0.191771,0.223190,0.000000,-0.226896,-0.232121,-0.000000
4.030000,0.600112,-0.088751,-1.394130,1.137390,0.848307,-0.017363,-2.007767,1.758685,0.860330,2.083204,-2.022396,-1.780309,25.684170,-12.062232,-1.068499,0.189443,0.220686,0.000000,-0.238507,-0.259379,-0.000000
4.040000,0.611386,-0.080180,-1.394261,1.117421,0.865790,-0.008848,-1.985674,1.737864,0.842477,2.333036,-2.141091,-1.789773,24.276725,-11.674384,-0.832652,0.187002,0.217913,0.000000,-0.249780,-0.285075,0.000000
4.050000,0.622461,-0.071436,-1.394308,1.097685,0.883060,-0.000513,-1.961154,1.715876,0.824541,2.568640,-2.255837,-1.797121,22.839622,-11.272501,-0.644685,0.184449,0.214889,0.000000,-0.260712,-0.309200,-0.000000
4.060000,0.633340,-0.062520,-1.394272,1.078206,0.900104,0.007642,-1.934353,1.692762,0.806542,2.789443,-2.366469,-1.802638,21.387014,-10.859080,-0.505140,0.181789,0.211629,0.000000,-0.271293,-0.331709,0.000000
4.070000,0.644026,-0.053434,-1.394155,1.059005,0.916912,0.015617,-1.905414,1.668561,0.788493,2.995973,-2.472948,-1.807158,19.916550,-10.434968,-0.405149,0.179024,0.208149,0.000000,-0.281532,-0.352684,0.000000
4.080000,0.654522,-0.044182,-1.393960,1.040104,0.933472,0.023412,-1.874483,1.643317,0.770402,3.187732,-2.575139,-1.810858,18.433653,-10.001789,-0.340280,0.176159,0.204466,0.000000,-0.291414,-0.372081,0.000000
4.090000,0.664829,-0.034766,-1.393688,1.021522,0.949775,0.031025,-1.841709,1.617073,0.752277,3.364623,-2.672959,-1.814066,16.943749,-9.561169,-0.306097,0.173197,0.200596,0.000000,-0.300933,-0.389901,-0.000000
4.100000,0.674953,-0.025188,-1.393340,1.003276,0.965810,0.038457,-1.807240,1.589873,0.734121,3.526602,-2.766343,-1.817067,15.452260,-9.114730,-0.298167,0.170142,0.196555,0.000000,-0.310079,-0.406145,-0.000000
4.110000,0.684896,-0.015450,-1.392919,0.985382,0.981569,0.045708,-1.771230,1.561762,0.715933,3.673309,-2.855149,-1.820328,13.973993,-8.666391,-0.306347,0.166997,0.192359,0.000000,-0.318838,-0.420786,0.000000
4.120000,0.694662,-0.005557,-1.392427,0.967856,0.997042,0.052776,-1.733823,1.532785,0.697714,3.805690,-2.939558,-1.823509,12.503842,-8.215202,-0.332612,0.163766,0.188026,0.000000,-0.327213,-0.433914,-0.000000
4.130000,0.704254,0.004489,-1.391864,0.950710,1.012222,0.059662,-1.695165,1.502986,0.679462,3.923428,-3.019448,-1.827028,11.046084,-7.762505,-0.373227,0.160454,0.183569,0.000000,-0.335186,-0.445501,0.000000
4.140000,0.713677,0.014686,-1.391234,0.933956,1.027099,0.066365,-1.655403,1.472411,0.661172,4.026667,-3.094808,-1.831009,9.604994,-7.309644,-0.424458,0.157064,0.179005,0.000000,-0.342750,-0.455564,-0.000000
4.150000,0.722935,0.025030,-1.390538,0.917605,1.041668,0.072885,-1.614680,1.441105,0.642840,4.115597,-3.165644,-1.835540,8.184849,-6.857962,-0.482571,0.153600,0.174349,0.000000,-0.349895,-0.464118,-0.000000
4.160000,0.732031,0.035519,-1.389777,0.901665,1.055919,0.079222,-1.573142,1.409114,0.624454,4.190060,-3.231859,-1.841117,6.799740,-6.411757,-0.532570,0.150067,0.169617,0.000000,-0.356607,-0.471153,-0.000000
4.170000,0.740970,0.046148,-1.388954,0.886144,1.069848,0.085374,-1.530924,1.376482,0.606016,4.251248,-3.293759,-1.846697,5.442926,-5.969056,-0.583361,0.146470,0.164824,0.000000,-0.362888,-0.476772,-0.000000
4.180000,0.749755,0.056914,-1.388070,0.871049,1.083447,0.091342,-1.488162,1.343254,0.587519,4.299023,-3.351255,-1.852779,4.117480,-5.530839,-0.632588,0.142811,0.159983,0.000000,-0.368728,-0.480965,0.000000
4.190000,0.758392,0.067815,-1.387128,0.856383,1.096711,0.097124,-1.444987,1.309472,0.568959,4.333713,-3.404394,-1.859336,2.826476,-5.098088,-0.677894,0.139096,0.155110,0.000000,-0.374119,-0.483764,0.000000
4.200000,0.766884,0.078847,-1.386128,0.842150,1.109635,0.102721,-1.401530,1.275180,0.550331,4.355677,-3.453238,-1.866316,1.572989,-4.671784,-0.716924,0.135330,0.150218,0.000000,-0.379058,-0.485204,0.000000
4.210000,0.775237,0.090007,-1.385074,0.828353,1.122213,0.108131,-1.357919,1.240422,0.531626,4.364919,-3.497734,-1.874132,0.369915,-4.255956,-0.735035,0.131517,0.145321,0.000000,-0.383535,-0.485289,0.000000
4.220000,0.783453,0.101291,-1.383966,0.814992,1.134442,0.113353,-1.314271,1.205239,0.512848,4.362779,-3.538248,-1.881534,-0.790698,-3.848164,-0.743662,0.127661,0.140432,0.000000,-0.387561,-0.484142,-0.000000
4.230000,0.791538,0.112695,-1.382807,0.802067,1.146317,0.118388,-1.270701,1.169671,0.493995,4.349253,-3.574726,-1.888971,-1.906979,-3.449016,-0.741957,0.123767,0.135563,0.000000,-0.391132,-0.481769,0.000000
4.240000,0.799496,0.124216,-1.381599,0.789577,1.157834,0.123233,-1.227322,1.133758,0.475068,4.324793,-3.607259,-1.896335,-2.977056,-3.059121,-0.729067,0.119840,0.130727,0.000000,-0.394248,-0.478219,-0.000000
4.250000,0.807331,0.135850,-1.380343,0.777520,1.168991,0.127889,-1.184240,1.097539,0.456069,4.289872,-3.635941,-1.903512,-3.999058,-2.679085,-0.704142,0.115884,0.125934,0.000000,-0.396913,-0.473542,-0.000000
4.260000,0.815047,0.147594,-1.379042,0.765891,1.179784,0.132354,-1.141562,1.061053,0.436995,4.244608,-3.660765,-1.910768,-4.961763,-2.312313,-0.656404,0.111903,0.121196,0.000000,-0.399126,-0.467757,0.000000
4.270000,0.822650,0.159445,-1.377697,0.754687,1.190211,0.136629,-1.099380,1.024335,0.417855,4.190388,-3.682099,-1.917041,-5.873797,-1.956275,-0.596145,0.107903,0.116523,0.000000,-0.400908,-0.461001,0.000000
4.280000,0.830143,0.171397,-1.376310,0.743901,1.200270,0.140711,-1.057784,0.987422,0.398656,4.127304,-3.699927,-1.922651,-6.734433,-1.611237,-0.523728,0.103886,0.111925,0.000000,-0.402261,-0.453292,0.000000
4.290000,0.837529,0.183449,-1.374883,0.733529,1.209959,0.144602,-1.016861,0.950348,0.379405,4.055873,-3.714361,-1.927477,-7.542944,-1.277463,-0.439519,0.099859,0.107411,0.000000,-0.403195,-0.444692,0.000000
4.300000,0.844815,0.195595,-1.373419,0.723562,1.219276,0.148299,-0.976693,0.913146,0.360110,3.976621,-3.725515,-1.931403,-8.298606,-0.955221,-0.343882,0.095824,0.102989,0.000000,-0.403721,-0.435258,0.000000
4.310000,0.852002,0.207833,-1.371918,0.713992,1.228221,0.151804,-0.937357,0.875849,0.340778,3.889752,-3.733414,-1.934546,-8.992417,-0.647061,-0.231393,0.091786,0.098668,0.000000,-0.403845,-0.425023,-0.000000
4.320000,0.859096,0.220158,-1.370383,0.704812,1.236793,0.155115,-0.898920,0.838488,0.321423,3.796581,-3.738393,-1.936256,-9.632939,-0.350684,-0.108914,0.087748,0.094455,0.000000,-0.403596,-0.414123,0.000000
4.330000,0.866099,0.232568,-1.368816,0.696011,1.244991,0.158232,-0.861446,0.801091,0.302057,3.697270,-3.740467,-1.936695,-10.220459,-0.066075,0.022483,0.083715,0.090356,0.000000,-0.402983,-0.402585,-0.000000
4.340000,0.873017,0.245057,-1.367219,0.687579,1.252815,0.161156,-0.824993,0.763688,0.282693,3.592347,-3.739754,-1.935780,-10.755266,0.206781,0.161724,0.079690,0.086377,0.000000,-0.402020,-0.390472,-0.000000
4.350000,0.879852,0.257623,-1.365594,0.679507,1.260265,0.163886,-0.789616,0.726305,0.263346,3.482339,-3.736371,-1.933438,-11.237645,0.467897,0.307735,0.075676,0.082523,0.000000,-0.400724,-0.377845,0.000000
4.360000,0.886608,0.270261,-1.363942,0.671783,1.267341,0.166423,-0.755364,0.688970,0.244029,3.367508,-3.730370,-1.929663,-11.661316,0.715652,0.460878,0.071676,0.078800,0.000000,-0.399105,-0.364740,-0.000000
4.370000,0.893289,0.282968,-1.362266,0.664396,1.274044,0.168767,-0.722279,0.651706,0.224758,3.248990,-3.722023,-1.924270,-12.033940,0.951897,0.618471,0.067695,0.075211,0.000000,-0.397196,-0.351279,-0.000000
4.380000,0.899897,0.295741,-1.360568,0.657334,1.280376,0.170918,-0.690396,0.614537,0.205549,3.126996,-3.711370,-1.917283,-12.356607,1.176846,0.779263,0.063733,0.071760,0.000000,-0.395007,-0.337493,0.000000
4.390000,0.906437,0.308575,-1.358848,0.650584,1.286336,0.172878,-0.659749,0.577486,0.186418,3.002020,-3.698523,-1.908678,-12.630409,1.390715,0.942006,0.059795,0.068448,0.000000,-0.392556,-0.323439,-0.000000
4.400000,0.912910,0.321466,-1.357111,0.644135,1.291926,0.174647,-0.630364,0.540573,0.167381,2.874547,-3.683592,-1.898441,-12.856439,1.593718,1.105451,0.055883,0.065280,0.000000,-0.389859,-0.309172,0.000000
4.410000,0.919320,0.334412,-1.355356,0.637973,1.297148,0.176226,-0.602266,0.503821,0.148455,2.744872,-3.666646,-1.886492,-13.031366,1.785099,1.266361,0.051999,0.062256,0.000000,-0.386931,-0.294729,-0.000000
4.420000,0.925670,0.347408,-1.353587,0.632085,1.302003,0.177616,-0.575472,0.467247,0.129656,2.613872,-3.647881,-1.873030,-13.161244,1.966164,1.425719,0.048145,0.059378,0.000000,-0.383798,-0.280204,-0.000000
4.430000,0.931963,0.360451,-1.351804,0.626459,1.306493,0.178820,-0.549993,0.430869,0.111000,2.481792,-3.627356,-1.857986,-13.247708,2.137244,1.582519,0.044324,0.056645,0.000000,-0.380472,-0.265628,0.000000
4.440000,0.938200,0.373537,-1.350011,0.621081,1.310621,0.179837,-0.525838,0.394705,0.092502,2.349057,-3.605168,-1.841391,-13.292390,2.298674,1.735756,0.040536,0.054060,0.000000,-0.376970,-0.251047,-0.000000
4.450000,0.944385,0.386662,-1.348208,0.615938,1.314388,0.180670,-0.503012,0.358771,0.074177,2.216078,-3.581413,-1.823286,-13.296925,2.450787,1.884423,0.036785,0.051620,0.000000,-0.373306,-0.236505,-0.000000
4.460000,0.950520,0.399823,-1.346398,0.611016,1.317797,0.181321,-0.481517,0.323082,0.056043,2.083161,-3.556167,-1.803567,-13.260766,2.593525,2.023614,0.033071,0.049326,0.000000,-0.369494,-0.222036,-0.000000
4.470000,0.956606,0.413017,-1.344582,0.606303,1.320851,0.181792,-0.461347,0.287652,0.038110,1.950888,-3.529554,-1.782660,-13.187993,2.727661,2.156702,0.029395,0.047177,0.000000,-0.365552,-0.207703,-0.000000
4.480000,0.962647,0.426239,-1.342763,0.601785,1.323551,0.182084,-0.442496,0.252495,0.020394,1.819517,-3.501641,-1.760455,-13.080504,2.853577,2.283161,0.025760,0.045170,0.000000,-0.361493,-0.193531,0.000000
4.490000,0.968643,0.439487,-1.340941,0.597449,1.325901,0.182200,-0.424953,0.217623,0.002905,1.689387,-3.472508,-1.737021,-12.940202,2.971655,2.402463,0.022166,0.043304,0.000000,-0.357328,-0.179555,0.000000
4.500000,0.974596,0.452756,-1.339119,0.593281,1.327904,0.182143,-0.408703,0.183049,-0.014343,1.560816,-3.442233,-1.712431,-12.768984,3.082276,2.514080,0.018614,0.041577,0.000000,-0.353069,-0.165808,-0.000000
4.510000,0.980509,0.466043,-1.337299,0.589270,1.329563,0.181914,-0.393730,0.148782,-0.031338,1.434096,-3.410888,-1.686597,-12.568562,3.185860,2.613215,0.015105,0.039986,0.000000,-0.348728,-0.152317,-0.000000
4.520000,0.986382,0.479346,-1.335482,0.585403,1.330881,0.181517,-0.380014,0.114834,-0.048072,1.309527,-3.378540,-1.660004,-12.341049,3.282746,2.704132,0.011640,0.038529,0.000000,-0.344315,-0.139113,0.000000
4.530000,0.992217,0.492660,-1.333669,0.581666,1.331861,0.180954,-0.367532,0.081215,-0.064535,1.187359,-3.345254,-1.632542,-12.088368,3.373311,2.786828,0.008219,0.037203,0.000000,-0.339839,-0.126219,0.000000
4.540000,0.998016,0.505982,-1.331863,0.578048,1.332507,0.180227,-0.356258,0.047932,-0.080720,1.067837,-3.311093,-1.604295,-11.812441,3.457931,2.861297,0.004843,0.036004,0.000000,-0.335309,-0.113657,0.000000
4.550000,1.003779,0.519309,-1.330065,0.574537,1.332821,0.179340,-0.346165,0.014996,-0.096619,0.951182,-3.276114,-1.575344,-11.515192,3.536983,2.927535,0.001513,0.034929,0.000000,-0.330732,-0.101447,0.000000
4.560000,1.009507,0.532637,-1.328277,0.571121,1.332808,0.178296,-0.337224,-0.017588,-0.112223,0.837649,-3.240384,-1.545636,-11.199834,3.611170,2.982109,-0.001772,0.033974,0.000000,-0.326118,-0.089612,-0.000000
4.570000,1.015201,0.545964,-1.326500,0.567789,1.332470,0.177097,-0.329402,-0.049810,-0.127530,0.727301,-3.203921,-1.515575,-10.866842,3.680503,3.028862,-0.005009,0.033135,0.000000,-0.321470,-0.078156,0.000000
4.580000,1.020863,0.559286,-1.324735,0.564529,1.331813,0.175746,-0.322666,-0.081664,-0.142533,0.620365,-3.166789,-1.485083,-10.517982,3.745320,3.068209,-0.008201,0.032409,0.000000,-0.316795,-0.067097,-0.000000
4.590000,1.026492,0.572599,-1.322985,0.561332,1.330838,0.174247,-0.316983,-0.113143,-0.157230,0.516989,-3.129029,-1.454234,-10.155018,3.805956,3.100564,-0.011345,0.031792,0.000000,-0.312098,-0.056448,-0.000000
4.600000,1.032090,0.585901,-1.321251,0.558186,1.329551,0.172603,-0.312314,-0.144242,-0.171617,0.417305,-3.090682,-1.423094,-9.779717,3.862750,3.126342,-0.014443,0.031279,0.000000,-0.307383,-0.046218,-0.000000
4.610000,1.037656,0.599189,-1.319534,0.555082,1.327955,0.170816,-0.308623,-0.174955,-0.185690,0.321518,-3.051805,-1.391652,-9.396073,3.916518,3.144059,-0.017493,0.030866,0.000000,-0.302658,-0.036424,-0.000000
4.620000,1.043191,0.612460,-1.317835,0.552010,1.326053,0.168890,-0.305871,-0.205277,-0.199449,0.229514,-3.012384,-1.360146,-9.003348,3.967059,3.156262,-0.020496,0.030549,0.000000,-0.297920,-0.027051,0.000000
4.630000,1.048696,0.625709,-1.316156,0.548962,1.323851,0.166828,-0.304019,-0.235202,-0.212893,0.141476,-2.972473,-1.328543,-8.603035,4.014651,3.163598,-0.023451,0.030323,0.000000,-0.293175,-0.018114,-0.000000
4.640000,1.054171,0.638936,-1.314499,0.545927,1.321351,0.164633,-0.303028,-0.264725,-0.226020,0.057473,-2.932100,-1.296888,-8.196625,4.059572,3.166714,-0.026359,0.030185,0.000000,-0.288425,-0.009616,-0.000000
4.650000,1.059615,0.652135,-1.312864,0.542898,1.318557,0.162309,-0.302856,-0.293842,-0.238831,-0.022441,-2.891290,-1.265221,-7.785611,4.102099,3.166259,-0.029220,0.030129,0.000000,-0.283672,-0.001559,0.000000
4.660000,1.065029,0.665306,-1.311253,0.539867,1.315475,0.159857,-0.303462,-0.322549,-0.251325,-0.098124,-2.850088,-1.233565,-7.374119,4.143082,3.162671,-0.032033,0.030152,0.000000,-0.278922,0.006046,-0.000000
4.670000,1.070412,0.678444,-1.309668,0.536827,1.312108,0.157283,-0.304805,-0.350842,-0.263502,-0.169799,-2.808460,-1.201966,-6.960684,4.182158,3.156832,-0.034798,0.030249,0.000000,-0.274169,0.013226,-0.000000
4.680000,1.075765,0.691547,-1.308108,0.533769,1.308460,0.154588,-0.306844,-0.378717,-0.275364,-0.237335,-2.766450,-1.170433,-6.546476,4.219537,3.149413,-0.037516,0.030415,0.000000,-0.269418,0.019969,-0.000000
4.690000,1.081087,0.704612,-1.306576,0.530688,1.304535,0.151777,-0.309538,-0.406170,-0.286911,-0.300730,-2.724074,-1.138980,-6.132664,4.255427,3.141090,-0.040187,0.030647,0.000000,-0.264670,0.026280,0.000000
4.700000,1.086379,0.717637,-1.305073,0.527576,1.300338,0.148851,-0.312845,-0.433198,-0.298144,-0.359994,-2.681346,-1.107612,-5.720418,4.290037,3.132533,-0.042810,0.030940,0.000000,-0.259926,0.032163,-0.000000
4.710000,1.091639,0.730618,-1.303599,0.524429,1.295872,0.145815,-0.316723,-0.459796,-0.309064,-0.415043,-2.638302,-1.076377,-5.313549,4.324199,3.125648,-0.045385,0.031289,0.000000,-0.255187,0.037611,0.000000
4.720000,1.096867,0.743553,-1.302157,0.521240,1.291143,0.142671,-0.321132,-0.485963,-0.319672,-0.466159,-2.594893,-1.045151,-4.910261,4.357422,3.119725,-0.047913,0.031692,0.000000,-0.250451,0.042656,-0.000000
4.730000,1.102064,0.756440,-1.300746,0.518005,1.286155,0.139423,-0.326033,-0.511693,-0.329967,-0.513263,-2.551156,-1.013978,-4.511402,4.389836,3.115286,-0.050394,0.032142,0.000000,-0.245719,0.047293,-0.000000
4.740000,1.107227,0.769276,-1.299369,0.514718,1.280911,0.136073,-0.331384,-0.536985,-0.339951,-0.556404,-2.507099,-0.982839,-4.117817,4.421575,3.112854,-0.052828,0.032637,0.000000,-0.240991,0.051530,0.000000
4.750000,1.112358,0.782057,-1.298025,0.511376,1.275416,0.132625,-0.337148,-0.561834,-0.349624,-0.595640,-2.462726,-0.951712,-3.730354,4.452770,3.112950,-0.055214,0.033173,0.000000,-0.236269,0.055374,-0.000000
4.760000,1.117454,0.794783,-1.296717,0.507974,1.269676,0.129081,-0.343283,-0.586238,-0.358986,-0.630938,-2.418069,-0.920655,-3.352307,4.484182,3.118261,-0.057553,0.033745,0.000000,-0.231554,0.058824,-0.000000
4.770000,1.122517,0.807450,-1.295444,0.504509,1.263693,0.125446,-0.349754,-0.610194,-0.368037,-0.662602,-2.373072,-0.889432,-2.981774,4.515237,3.126880,-0.059845,0.034350,0.000000,-0.226841,0.061914,-0.000000
4.780000,1.127544,0.820056,-1.294208,0.500978,1.257473,0.121722,-0.356523,-0.633699,-0.376775,-0.690600,-2.327766,-0.858106,-2.619302,4.545990,3.139064,-0.062090,0.034984,0.000000,-0.222132,0.064641,-0.000000
4.790000,1.132536,0.832599,-1.293010,0.497377,1.251021,0.117912,-0.363554,-0.656749,-0.385199,-0.715016,-2.282153,-0.826638,-2.265436,4.576497,3.155069,-0.064288,0.035644,0.000000,-0.217429,0.067017,-0.000000
4.800000,1.137492,0.845076,-1.291850,0.493706,1.244340,0.114019,-0.370812,-0.679341,-0.393307,-0.735939,-2.236236,-0.794991,-1.920723,4.606812,3.175154,-0.066439,0.036326,0.000000,-0.212730,0.069052,-0.000000
4.810000,1.142410,0.857485,-1.290730,0.489960,1.237435,0.110046,-0.378261,-0.701473,-0.401099,-0.753379,-2.190040,-0.763220,-1.587828,4.637571,3.202084,-0.068542,0.037027,0.000000,-0.208037,0.070748,-0.000000
4.820000,1.147291,0.869824,-1.289649,0.486140,1.230312,0.105998,-0.385868,-0.723141,-0.408570,-0.767635,-2.143511,-0.731047,-1.264920,4.668178,3.233301,-0.070599,0.037744,0.000000,-0.203348,0.072137,-0.000000
4.830000,1.152133,0.882090,-1.288610,0.482243,1.222974,0.101876,-0.393603,-0.744342,-0.415719,-0.778712,-2.096677,-0.698540,-0.952285,4.698617,3.268753,-0.072609,0.038472,0.000000,-0.198662,0.073221,0.000000
4.840000,1.156935,0.894283,-1.287612,0.478268,1.215427,0.097685,-0.401432,-0.765073,-0.422540,-0.786716,-2.049540,-0.665658,-0.650212,4.728871,3.308390,-0.074573,0.039211,0.000000,-0.193982,0.074011,0.000000
4.850000,1.161698,0.906398,-1.286657,0.474214,1.207674,0.093426,-0.409327,-0.785332,-0.429030,-0.791752,-2.002100,-0.632359,-0.358987,4.758923,3.352161,-0.076489,0.039956,0.000000,-0.189306,0.074520,0.000000
4.860000,1.166419,0.918435,-1.285744,0.470081,1.199722,0.089105,-0.417257,-0.805114,-0.435187,-0.793864,-1.954380,-0.598693,-0.080638,4.789210,3.402329,-0.078359,0.040705,0.000000,-0.184636,0.074752,0.000000
4.870000,1.171099,0.930392,-1.284875,0.465869,1.191574,0.084724,-0.425195,-0.824418,-0.441003,-0.793325,-1.906337,-0.564403,0.186502,4.819208,3.456248,-0.080182,0.041455,0.000000,-0.179970,0.074736,-0.000000
4.880000,1.175736,0.942266,-1.284050,0.461577,1.183235,0.080286,-0.433115,-0.843240,-0.446473,-0.790171,-1.857997,-0.529556,0.442358,4.848846,3.513584,-0.081958,0.042203,0.000000,-0.175309,0.074477,-0.000000
4.890000,1.180330,0.954056,-1.283269,0.457206,1.174710,0.075796,-0.440990,-0.861577,-0.451592,-0.784516,-1.809362,-0.494121,0.686857,4.878055,3.574005,-0.083688,0.042948,0.000000,-0.170653,0.073985,0.000000
4.900000,1.184880,0.965760,-1.282534,0.452757,1.166005,0.071256,-0.448797,-0.879426,-0.456353,-0.776472,-1.760437,-0.458067,0.919924,4.906761,3.637176,-0.085371,0.043688,0.000000,-0.166003,0.073274,0.000000
4.910000,1.189385,0.977376,-1.281844,0.448231,1.157123,0.066670,-0.456512,-0.896785,-0.460752,-0.766102,-1.711238,-0.421436,1.140136,4.935128,3.704463,-0.087008,0.044419,0.000000,-0.161360,0.072349,0.000000
4.920000,1.193845,0.988902,-1.281201,0.443628,1.148071,0.062042,-0.464112,-0.913650,-0.464780,-0.753647,-1.661747,-0.384047,1.348934,4.962821,3.773627,-0.088599,0.045139,0.000000,-0.156722,0.071234,0.000000
4.930000,1.198258,1.000336,-1.280603,0.438949,1.138852,0.057375,-0.471578,-0.930019,-0.468430,-0.739161,-1.611984,-0.345959,1.546409,4.989743,3.844125,-0.090143,0.045848,0.000000,-0.152091,0.069937,-0.000000
4.940000,1.202623,1.011678,-1.280053,0.434197,1.129472,0.052674,-0.478889,-0.945889,-0.471696,-0.722756,-1.561955,-0.307162,1.732653,5.015792,3.915416,-0.091640,0.046543,0.000000,-0.147467,0.068466,-0.000000
4.950000,1.206941,1.022925,-1.279550,0.429372,1.119936,0.047943,-0.486027,-0.961257,-0.474571,-0.704545,-1.511671,-0.267650,1.907756,5.040870,3.986959,-0.093092,0.047223,0.000000,-0.142850,0.066835,-0.000000
4.960000,1.211211,1.034076,-1.279094,0.424477,1.110249,0.043184,-0.492974,-0.976122,-0.477047,-0.684600,-1.461140,-0.227457,2.070846,5.064827,4.059049,-0.094497,0.047885,0.000000,-0.138240,0.065049,-0.000000
4.970000,1.215431,1.045130,-1.278686,0.419513,1.100415,0.038403,-0.499714,-0.990479,-0.479118,-0.663121,-1.410376,-0.186510,2.223097,5.087619,4.130206,-0.095857,0.048529,0.000000,-0.133639,0.063128,-0.000000
4.980000,1.219601,1.056084,-1.278326,0.414483,1.090441,0.033603,-0.506231,-1.004328,-0.480775,-0.640173,-1.359392,-0.144858,2.364717,5.109152,4.199785,-0.097170,0.049153,0.000000,-0.129046,0.061078,-0.000000
4.990000,1.223720,1.066938,-1.278014,0.409389,1.080330,0.028789,-0.512513,-1.017666,-0.482013,-0.615862,-1.308198,-0.102521,2.495916,5.129332,4.267144,-0.098438,0.049756,0.000000,-0.124462,0.058909,-0.000000
5.000000,1.227788,1.077690,-1.277751,0.404234,1.070089,0.023965,-0.518544,-1.030492,-0.482823,-0.590289,-1.256810,-0.059525,2.616903,5.148065,4.331637,-0.099659,0.050337,0.000000,-0.119887,0.056631,0.000000
5.010000,1.231805,1.088340,-1.277535,0.399019,1.059722,0.019134,-0.524314,-1.042802,-0.483201,-0.563533,-1.205228,-0.015896,2.727289,5.164918,4.392515,-0.100835,0.050894,0.000000,-0.115320,0.054251,-0.000000
5.020000,1.235768,1.098885,-1.277368,0.393748,1.049235,0.014302,-0.529812,-1.054596,-0.483139,-0.535749,-1.153501,0.028316,2.827955,5.180178,4.449253,-0.101966,0.051427,0.000000,-0.110765,0.051782,0.000000
5.030000,1.239679,1.109324,-1.277249,0.388424,1.038632,0.009473,-0.535026,-1.065871,-0.482633,-0.507006,-1.101630,0.073073,2.919183,5.193793,4.501221,-0.103051,0.051935,0.000000,-0.106219,0.049232,-0.000000
5.040000,1.243537,1.119657,-1.277178,0.383049,1.027919,0.004651,-0.539949,-1.076628,-0.481676,-0.477396,-1.049631,0.118323,3.001255,5.205713,4.547789,-0.104090,0.052417,0.000000,-0.101683,0.046607,0.000000
5.050000,1.247340,1.129882,-1.277156,0.377626,1.017101,-0.000159,-0.544571,-1.086864,-0.480265,-0.447010,-0.997522,0.164009,3.074454,5.215886,4.588326,-0.105084,0.052872,0.000000,-0.097157,0.043916,-0.000000
5.060000,1.251089,1.139998,-1.277182,0.372158,1.006184,-0.004953,-0.548887,-1.096578,-0.478394,-0.415925,-0.945297,0.210106,3.138798,5.223696,4.621211,-0.106033,0.053300,0.000000,-0.092639,0.041166,0.000000
5.070000,1.254783,1.150005,-1.277255,0.366649,0.995171,-0.009726,-0.552888,-1.105769,-0.476062,-0.384250,-0.893029,0.256453,3.194866,5.229723,4.646926,-0.106937,0.053699,0.000000,-0.088132,0.038365,-0.000000
5.080000,1.258422,1.159902,-1.277376,0.361102,0.984070,-0.014473,-0.556570,-1.114438,-0.473265,-0.352054,-0.840709,0.303019,3.242973,5.233985,4.664960,-0.107796,0.054071,0.000000,-0.083636,0.035519,-0.000000
5.090000,1.262005,1.169686,-1.277544,0.355519,0.972884,-0.019189,-0.559928,-1.122584,-0.470001,-0.319416,-0.788355,0.349725,3.283433,5.236497,4.674804,-0.108610,0.054414,0.000000,-0.079148,0.032634,0.000000
5.100000,1.265532,1.179359,-1.277760,0.349904,0.961620,-0.023871,-0.562957,-1.130205,-0.466270,-0.286410,-0.735985,0.396486,3.316562,5.237277,4.675949,-0.109379,0.054728,0.000000,-0.074669,0.029716,-0.000000
5.110000,1.269003,1.188919,-1.278022,0.344261,0.950282,-0.028513,-0.565655,-1.137303,-0.462071,-0.253109,-0.683590,0.443281,3.342693,5.235710,4.666190,-0.110103,0.055012,0.000000,-0.070197,0.026772,0.000000
5.120000,1.272417,1.198364,-1.278330,0.338592,0.938876,-0.033111,-0.568018,-1.143877,-0.457405,-0.219579,-0.631248,0.489854,3.362120,5.232522,4.646920,-0.110783,0.055266,0.000000,-0.065733,0.023805,-0.000000
5.130000,1.275775,1.207696,-1.278684,0.332902,0.927406,-0.037660,-0.570046,-1.149928,-0.452274,-0.185888,-0.578945,0.536186,3.375155,5.227807,4.617837,-0.111418,0.055491,0.000000,-0.061276,0.020821,-0.000000
5.140000,1.279075,1.216912,-1.279083,0.327192,0.915879,-0.042155,-0.571736,-1.155456,-0.446682,-0.152097,-0.526696,0.582177,3.382112,5.221659,4.578641,-0.112009,0.055685,0.000000,-0.056825,0.017825,-0.000000
5.150000,1.282319,1.226013,-1.279527,0.321468,0.904299,-0.046592,-0.573088,-1.160462,-0.440632,-0.118265,-0.474516,0.627724,3.383302,5.214172,4.529028,-0.112555,0.055849,0.000000,-0.052378,0.014820,-0.000000
5.160000,1.285505,1.234998,-1.280014,0.315732,0.892671,-0.050966,-0.574101,-1.164947,-0.434129,-0.084458,-0.422397,0.672807,3.379277,5.204947,4.466553,-0.113056,0.055983,0.000000,-0.047932,0.011812,-0.000000
5.170000,1.288633,1.243867,-1.280546,0.309987,0.881002,-0.055273,-0.574777,-1.168910,-0.427178,-0.050707,-0.370399,0.717115,3.370082,5.194633,4.393321,-0.113513,0.056087,0.000000,-0.043489,0.008801,0.000000
5.180000,1.291704,1.252618,-1.281120,0.304237,0.869295,-0.059508,-0.575116,-1.172355,-0.419789,-0.017073,-0.318508,0.760637,3.356000,5.183382,4.309293,-0.113926,0.056161,0.000000,-0.039045,0.005793,0.000000
5.190000,1.294718,1.261252,-1.281736,0.298486,0.857556,-0.063667,-0.575119,-1.175281,-0.411969,0.016398,-0.266734,0.803265,3.337314,5.171351,4.214430,-0.114294,0.056204,0.000000,-0.034600,0.002790,-0.000000
5.200000,1.297674,1.269769,-1.282393,0.292736,0.845791,-0.067746,-0.574788,-1.177690,-0.403727,0.049659,-0.215083,0.844890,3.314307,5.158693,4.108693,-0.114618,0.056217,0.000000,-0.030150,-0.000205,0.000000
5.210000,1.300573,1.278168,-1.283090,0.286991,0.834004,-0.071741,-0.574127,-1.179583,-0.395074,0.082655,-0.163556,0.885493,3.287654,5.145426,3.989753,-0.114897,0.056200,0.000000,-0.025694,-0.003186,0.000000
5.220000,1.303414,1.286449,-1.283827,0.281255,0.822201,-0.075646,-0.573136,-1.180962,-0.386021,0.115382,-0.112169,0.924751,3.257198,5.131857,3.860141,-0.115132,0.056153,0.000000,-0.021229,-0.006158,0.000000
5.230000,1.306198,1.294612,-1.284603,0.275530,0.810387,-0.079460,-0.571820,-1.181827,-0.376583,0.147787,-0.060919,0.962661,3.223177,5.118159,3.720099,-0.115322,0.056076,0.000000,-0.016753,-0.009113,-0.000000
5.240000,1.308925,1.302657,-1.285416,0.269819,0.798566,-0.083177,-0.570182,-1.182180,-0.366773,0.179834,-0.009806,0.999119,3.185824,5.104503,3.569867,-0.115467,0.055969,0.000000,-0.012263,-0.012052,0.000000
5.250000,1.311594,1.310583,-1.286266,0.264127,0.786745,-0.086794,-0.568225,-1.182023,-0.356606,0.211493,0.041172,1.034025,3.145375,5.091059,3.409686,-0.115567,0.055833,0.000000,-0.007757,-0.014971,0.000000
5.260000,1.314207,1.318392,-1.287152,0.258456,0.774928,-0.090308,-0.565954,-1.181358,-0.346097,0.242713,0.092001,1.067364,3.102549,5.078395,3.237687,-0.115622,0.055668,0.000000,-0.003234,-0.017866,-0.000000
5.270000,1.316763,1.326082,-1.288072,0.252809,0.763119,-0.093715,-0.563372,-1.180184,-0.335265,0.273513,0.142723,1.098843,3.057038,5.066238,3.056481,-0.115631,0.055474,0.000000,0.001314,-0.020741,0.000000
5.280000,1.319263,1.333654,-1.289026,0.247189,0.751326,-0.097012,-0.560485,-1.178503,-0.324126,0.303846,0.193328,1.128465,3.009020,5.054710,2.866567,-0.115595,0.055250,0.000000,0.005886,-0.023593,-0.000000
5.290000,1.321707,1.341109,-1.290012,0.241600,0.739551,-0.100196,-0.557297,-1.176318,-0.312702,0.333686,0.243820,1.156147,2.958669,5.043935,2.668445,-0.115514,0.054999,0.000000,0.010487,-0.026418,0.000000
5.300000,1.324096,1.348445,-1.291029,0.236045,0.727801,-0.103265,-0.553813,-1.173627,-0.301010,0.363012,0.294209,1.181808,2.906163,5.034034,2.462616,-0.115386,0.054719,0.000000,0.015118,-0.029217,0.000000
5.310000,1.326428,1.355665,-1.292077,0.230525,0.716080,-0.106216,-0.550039,-1.170434,-0.289072,0.391782,0.344464,1.205440,2.852199,5.026135,2.247945,-0.115211,0.054411,0.000000,0.019777,-0.031984,-0.000000
5.320000,1.328706,1.362767,-1.293153,0.225045,0.704394,-0.109046,-0.545979,-1.166738,-0.276909,0.420026,0.394690,1.226818,2.796368,5.019234,2.026766,-0.114990,0.054075,0.000000,0.024479,-0.034724,0.000000
5.330000,1.330929,1.369753,-1.294257,0.219606,0.692747,-0.111753,-0.541640,-1.162541,-0.264543,0.447704,0.444852,1.245956,2.738781,5.013330,1.799779,-0.114722,0.053712,0.000000,0.029220,-0.037433,-0.000000
5.340000,1.333098,1.376622,-1.295388,0.214213,0.681145,-0.114336,-0.537027,-1.157842,-0.251997,0.474797,0.494960,1.262797,2.679553,5.008423,1.567683,-0.114405,0.053321,0.000000,0.034004,-0.040110,0.000000
5.350000,1.335214,1.383376,-1.296543,0.208867,0.669592,-0.116793,-0.532146,-1.152642,-0.239295,0.501289,0.545024,1.277295,2.618794,5.004513,1.331179,-0.114041,0.052904,0.000000,0.038831,-0.042752,0.000000
5.360000,1.337276,1.390014,-1.297723,0.203571,0.658094,-0.119122,-0.527003,-1.146942,-0.226459,0.527147,0.594992,1.289444,2.557135,5.003160,1.090048,-0.113629,0.052461,0.000000,0.043697,-0.045357,0.000000
5.370000,1.339285,1.396538,-1.298925,0.198328,0.646655,-0.121322,-0.521605,-1.140742,-0.213514,0.552405,0.645020,1.299127,2.494107,5.002612,0.846021,-0.113167,0.051991,0.000000,0.048620,-0.047927,-0.000000
5.380000,1.341243,1.402947,-1.300149,0.193140,0.635280,-0.123392,-0.515957,-1.134041,-0.200485,0.577025,0.695047,1.306358,2.429759,5.002679,0.599909,-0.112656,0.051496,0.000000,0.053594,-0.050459,-0.000000
5.390000,1.343148,1.409244,-1.301393,0.188009,0.623976,-0.125331,-0.510067,-1.126841,-0.187395,0.600995,0.745075,1.311121,2.364141,5.003168,0.352526,-0.112095,0.050976,0.000000,0.058619,-0.052951,-0.000000
5.400000,1.345003,1.415427,-1.302655,0.182939,0.612745,-0.127139,-0.503940,-1.119140,-0.174270,0.624304,0.795111,1.313407,2.297302,5.003890,0.104682,-0.111484,0.050431,0.000000,0.063695,-0.055401,0.000000
5.410000,1.346807,1.421499,-1.303935,0.177931,0.601594,-0.128816,-0.497583,-1.110939,-0.161135,0.646918,0.845077,1.313218,2.229773,5.006584,-0.142879,-0.110821,0.049861,0.000000,0.068816,-0.057805,-0.000000
5.420000,1.348562,1.427459,-1.305231,0.172988,0.590528,-0.130362,-0.491004,-1.102238,-0.148014,0.668874,0.895155,1.310556,2.161062,5.008891,-0.389267,-0.110107,0.049267,0.000000,0.074000,-0.060166,0.000000
5.430000,1.350267,1.433310,-1.306542,0.168112,0.579551,-0.131777,-0.484208,-1.093036,-0.134932,0.690136,0.945252,1.305440,2.091159,5.010384,-0.633661,-0.109341,0.048650,0.000000,0.079235,-0.062480,-0.000000
5.440000,1.351924,1.439051,-1.307866,0.163305,0.568669,-0.133061,-0.477203,-1.083333,-0.121914,0.710693,0.995358,1.297892,2.020053,5.010634,-0.875240,-0.108522,0.048011,0.000000,0.084521,-0.064744,-0.000000
5.450000,1.353534,1.444683,-1.309203,0.158568,0.557886,-0.134215,-0.469997,-1.073129,-0.108982,0.730533,1.045459,1.287947,1.947734,5.009214,-1.113184,-0.107650,0.047348,0.000000,0.089855,-0.066956,-0.000000
5.460000,1.355096,1.450209,-1.310550,0.153905,0.547208,-0.135241,-0.462595,-1.062425,-0.096163,0.749627,1.095456,1.275613,1.874617,5.007714,-1.345896,-0.106725,0.046664,0.000000,0.095227,-0.069112,-0.000000
5.470000,1.356612,1.455628,-1.311907,0.149317,0.536640,-0.136139,-0.455006,-1.051220,-0.083478,0.768002,1.145514,1.261012,1.800215,5.003441,-1.573427,-0.105746,0.045958,0.000000,0.100650,-0.071214,0.000000
5.480000,1.358083,1.460942,-1.313273,0.144806,0.526185,-0.136911,-0.447238,-1.039515,-0.070950,0.785626,1.195513,1.244164,1.724466,4.995720,-1.795050,-0.104712,0.045232,0.000000,0.106112,-0.073256,0.000000
5.490000,1.359508,1.466152,-1.314645,0.140373,0.515851,-0.137559,-0.439296,-1.027310,-0.058602,0.802487,1.245415,1.225133,1.647308,4.983877,-2.010040,-0.103623,0.044485,0.000000,0.111607,-0.075235,-0.000000
5.500000,1.360890,1.471259,-1.316023,0.136020,0.505641,-0.138084,-0.431191,-1.014607,-0.046454,0.818568,1.295175,1.203988,1.568680,4.967237,-2.217671,-0.102480,0.043719,0.000000,0.117128,-0.077150,0.000000
5.510000,1.362229,1.476265,-1.317406,0.131750,0.495560,-0.138488,-0.422928,-1.001408,-0.034529,0.833842,1.344670,1.180748,1.488859,4.946913,-2.415740,-0.101281,0.042934,0.000000,0.122662,-0.078995,0.000000
5.520000,1.363526,1.481171,-1.318793,0.127562,0.485614,-0.138775,-0.414516,-0.987714,-0.022846,0.848324,1.394012,1.155636,1.407403,4.920222,-2.605180,-0.100026,0.042131,0.000000,0.128215,-0.080770,0.000000
5.530000,1.364781,1.485978,-1.320181,0.123460,0.475808,-0.138946,-0.405964,-0.973529,-0.011423,0.861984,1.443051,1.128675,1.324206,4.886272,-2.785447,-0.098717,0.041311,0.000000,0.133771,-0.082470,-0.000000
5.540000,1.365995,1.490688,-1.321571,0.119444,0.466145,-0.139005,-0.397280,-0.958855,-0.000278,0.874802,1.491710,1.099959,1.239165,4.844167,-2.955994,-0.097351,0.040474,0.000000,0.139318,-0.084093,-0.000000
5.550000,1.367170,1.495301,-1.322961,0.115515,0.456632,-0.138953,-0.388471,-0.943696,0.010571,0.886761,1.539904,1.069589,1.152178,4.793015,-3.116278,-0.095930,0.039621,0.000000,0.144847,-0.085633,0.000000
5.560000,1.368306,1.499821,-1.324350,0.111674,0.447273,-0.138794,-0.379548,-0.928059,0.021108,0.897788,1.587490,1.037600,1.064422,4.733122,-3.263985,-0.094454,0.038754,0.000000,0.150338,-0.087084,0.000000
5.570000,1.369404,1.504247,-1.325737,0.107924,0.438073,-0.138532,-0.370518,-0.911949,0.031318,0.907984,1.634476,1.004268,0.974354,4.662247,-3.400555,-0.092924,0.037872,0.000000,0.155790,-0.088451,0.000000
5.580000,1.370464,1.508583,-1.327120,0.104264,0.429036,-0.138169,-0.361391,-0.895372,0.041189,0.917267,1.680694,0.969627,0.881714,4.579348,-3.525661,-0.091339,0.036978,0.000000,0.161181,-0.089727,-0.000000
5.590000,1.371489,1.512829,-1.328500,0.100697,0.420167,-0.137709,-0.352176,-0.878338,0.050707,0.925609,1.726019,0.933794,0.786241,4.483384,-3.638975,-0.089700,0.036071,0.000000,0.166495,-0.090905,0.000000
5.600000,1.372479,1.516987,-1.329874,0.097221,0.411471,-0.137156,-0.342882,-0.860855,0.059861,0.932981,1.770315,0.896888,0.687674,4.373314,-3.740168,-0.088009,0.035152,0.000000,0.171716,-0.091983,-0.000000
5.610000,1.373434,1.521059,-1.331243,0.093839,0.402951,-0.136513,-0.333518,-0.842936,0.068640,0.939540,1.813399,0.858923,0.580982,4.249024,-3.826155,-0.086266,0.034224,0.000000,0.176822,-0.092973,0.000000
5.620000,1.374356,1.525046,-1.332604,0.090551,0.394613,-0.135784,-0.324095,-0.824591,0.077037,0.944804,1.855200,0.820283,0.471259,4.108432,-3.899703,-0.084473,0.033286,0.000000,0.181799,-0.093826,-0.000000
5.630000,1.375245,1.528952,-1.333958,0.087357,0.386461,-0.134974,-0.314625,-0.805837,0.085043,0.948956,1.895509,0.780970,0.358827,3.950385,-3.960821,-0.082631,0.032341,0.000000,0.186625,-0.094558,-0.000000
5.640000,1.376103,1.532776,-1.335303,0.084259,0.378498,-0.134085,-0.305120,-0.786687,0.092654,0.951972,1.934146,0.741108,0.244011,3.773727,-4.009519,-0.080741,0.031389,0.000000,0.191276,-0.095166,0.000000
5.650000,1.376931,1.536522,-1.336639,0.081255,0.370728,-0.133122,-0.295590,-0.767160,0.099864,0.953830,1.970918,0.700821,0.127133,3.577305,-4.045808,-0.078806,0.030432,0.000000,0.195730,-0.095647,0.000000
5.660000,1.377729,1.540191,-1.337965,0.078347,0.363156,-0.132089,-0.286050,-0.747275,0.106669,0.954194,2.005647,0.660213,0.016476,3.359338,-4.069193,-0.076827,0.029471,0.000000,0.199966,-0.095963,-0.000000
5.670000,1.378498,1.543786,-1.339281,0.075534,0.355784,-0.130990,-0.276510,-0.727055,0.113068,0.953796,2.038059,0.619456,-0.096570,3.119374,-4.080249,-0.074807,0.028507,0.000000,0.203951,-0.096191,0.000000
5.680000,1.379240,1.547308,-1.340585,0.072817,0.348616,-0.129829,-0.266978,-0.706522,0.119058,0.952252,2.067957,0.578649,-0.212658,2.856335,-4.079046,-0.072749,0.027542,0.000000,0.207661,-0.096289,0.000000
