time,x,y,z,vx,vy,vz,ax,ay,az,jx,jy,jz,sx,sy,sz
0.000000,-1.384397,-2.020496,1.427540,0.008932,-0.016322,0.021643,-0.086217,0.329825,-0.049795,-0.938144,-8.808477,0.222600,158.872246,200.866890,-33.226463
0.010000,-1.384312,-2.020644,1.427754,0.008049,-0.013432,0.021151,-0.087986,0.251330,-0.049163,0.552024,-6.934802,-0.089652,139.407715,174.272763,-29.268791
0.020000,-1.384236,-2.020767,1.427963,0.007219,-0.011238,0.020650,-0.075801,0.190283,-0.051460,1.854836,-5.315113,-0.363658,121.391009,150.051255,-25.575769
0.030000,-1.384167,-2.020870,1.428167,0.006573,-0.009577,0.020113,-0.051466,0.144259,-0.056317,2.984471,-3.926237,-0.602017,104.762421,128.091860,-22.137570
0.040000,-1.384104,-2.020960,1.428365,0.006224,-0.008310,0.019516,-0.016644,0.111062,-0.063390,3.954512,-2.746104,-0.807226,89.462238,108.284070,-18.944370
0.050000,-1.384042,-2.021038,1.428557,0.006270,-0.007319,0.018839,0.027136,0.088711,-0.072359,4.777945,-1.753752,-0.981688,75.430752,90.517380,-15.986342
0.060000,-1.383977,-2.021107,1.428742,0.006792,-0.006505,0.018063,0.078468,0.075428,-0.082929,5.467157,-0.929321,-1.127704,62.608252,74.681281,-13.253662
0.070000,-1.383904,-2.021168,1.428918,0.007860,-0.005786,0.017176,0.136071,0.069628,-0.094826,6.033941,-0.254059,-1.247480,50.935028,60.665266,-10.736504
0.080000,-1.383817,-2.021222,1.429085,0.009531,-0.005093,0.016163,0.198776,0.069908,-0.107798,6.489490,0.289683,-1.343120,40.351370,48.358830,-8.425041
0.090000,-1.383711,-2.021270,1.429241,0.011849,-0.004371,0.015017,0.265525,0.075038,-0.121615,6.844401,0.718448,-1.416633,30.797567,37.651464,-6.309449
0.100000,-1.383578,-2.021310,1.429385,0.014851,-0.003579,0.013729,0.335362,0.083945,-0.136063,7.108675,1.047674,-1.469929,22.213911,28.432662,-4.379901
0.110000,-1.383412,-2.021341,1.429515,0.018564,-0.002683,0.012294,0.407428,0.095708,-0.150952,7.291714,1.291695,-1.504819,14.540690,20.591916,-2.626573
0.120000,-1.383205,-2.021363,1.429630,0.023005,-0.001658,0.010709,0.480955,0.109540,-0.166104,7.402325,1.463738,-1.523015,7.718194,14.018721,-1.039639
0.130000,-1.382949,-2.021374,1.429729,0.028186,-0.000488,0.008972,0.555260,0.124783,-0.181362,7.448715,1.575926,-1.526133,1.686714,8.602568,0.390727
0.140000,-1.382638,-2.021372,1.429809,0.034111,0.000840,0.007082,0.629741,0.140895,-0.196582,7.438497,1.639277,-1.515690,-3.613460,4.232951,1.674351
0.150000,-1.382264,-2.021356,1.429870,0.040779,0.002332,0.005041,0.703865,0.157439,-0.211635,7.378684,1.663705,-1.493103,-8.242040,0.799363,2.821058
0.160000,-1.381820,-2.021325,1.429909,0.048185,0.003989,0.002850,0.777170,0.174069,-0.226408,7.275695,1.658016,-1.459692,-12.258734,-1.808703,3.840674
0.170000,-1.381298,-2.021276,1.429926,0.056318,0.005813,0.000514,0.849254,0.190525,-0.240797,7.135350,1.629914,-1.416680,-15.723253,-3.701754,4.743024
0.180000,-1.380692,-2.021208,1.429919,0.065165,0.007799,-0.001964,0.919770,0.206615,-0.254713,6.962872,1.585996,-1.365190,-18.695307,-4.990298,5.537934
0.190000,-1.379993,-2.021119,1.429886,0.074708,0.009943,-0.004579,0.988420,0.222210,-0.268076,6.762887,1.531755,-1.306247,-21.234606,-5.784840,6.235229
0.200000,-1.379195,-2.021009,1.429827,0.084926,0.012241,-0.007324,1.054950,0.237230,-0.280816,6.539423,1.471578,-1.240778,-23.400861,-6.195889,6.844735
0.210000,-1.378292,-2.020874,1.429740,0.095795,0.014679,-0.010193,1.119288,0.251902,-0.292879,6.309350,1.433486,-1.170228,-25.593145,-6.958786,7.391844
0.220000,-1.377277,-2.020715,1.429623,0.107299,0.017268,-0.013179,1.181069,0.265879,-0.304204,6.043694,1.361093,-1.093870,-27.490251,-7.482693,7.868909
0.230000,-1.376144,-2.020528,1.429476,0.119407,0.019994,-0.016274,1.240103,0.279109,-0.314742,5.760468,1.284515,-1.013057,-29.110332,-7.801606,8.283850
0.240000,-1.374887,-2.020314,1.429297,0.132091,0.022848,-0.019471,1.296229,0.291561,-0.324452,5.462351,1.205631,-0.928373,-30.471544,-7.949521,8.644586
0.250000,-1.373500,-2.020071,1.429086,0.145322,0.025822,-0.022760,1.349309,0.303220,-0.333298,5.151840,1.125981,-0.840320,-31.592042,-7.960436,8.959037
0.260000,-1.371979,-2.019798,1.428842,0.159066,0.028907,-0.026133,1.399261,0.314165,-0.341262,4.833982,1.054320,-0.750603,-32.558930,-8.059152,9.267529
0.270000,-1.370318,-2.019493,1.428563,0.173295,0.032100,-0.029582,1.445960,0.324304,-0.348300,4.504449,0.973624,-0.656531,-33.312972,-8.065497,9.541607
0.280000,-1.368512,-2.019155,1.428250,0.187974,0.035391,-0.033096,1.489329,0.333638,-0.354384,4.168399,0.893283,-0.559873,-33.863879,-7.990102,9.785222
0.290000,-1.366557,-2.018784,1.427901,0.203070,0.038770,-0.036666,1.529313,0.342174,-0.359490,3.827816,0.814059,-0.460915,-34.221365,-7.843601,10.002325
0.300000,-1.364449,-2.018380,1.427516,0.218549,0.042232,-0.040283,1.565876,0.349925,-0.363596,3.484584,0.736612,-0.359902,-34.395142,-7.636626,10.196868
0.310000,-1.362184,-2.017940,1.427095,0.234376,0.045766,-0.043934,1.599003,0.356936,-0.366696,3.140672,0.663558,-0.258320,-34.399435,-7.431961,10.405143
0.320000,-1.359760,-2.017464,1.426637,0.250518,0.049367,-0.047613,1.628692,0.363204,-0.368756,2.797347,0.590453,-0.153305,-34.238892,-7.181701,10.594801
0.330000,-1.357173,-2.016952,1.426143,0.266939,0.053027,-0.051306,1.654958,0.368754,-0.369756,2.456413,0.520061,-0.046486,-33.922670,-6.890095,10.765831
0.340000,-1.354421,-2.016403,1.425611,0.283606,0.056740,-0.055004,1.677833,0.373616,-0.369680,2.119382,0.452775,0.061950,-33.459930,-6.561388,10.918225
0.350000,-1.351500,-2.015817,1.425043,0.300484,0.060498,-0.058696,1.697364,0.377821,-0.368512,1.787672,0.388943,0.171816,-32.859832,-6.199827,11.051974
0.360000,-1.348410,-2.015193,1.424437,0.317542,0.064294,-0.062370,1.713608,0.381412,-0.366248,1.462477,0.329342,0.282148,-32.128110,-5.821483,11.186756
0.370000,-1.345149,-2.014531,1.423795,0.334746,0.068124,-0.066017,1.726640,0.384421,-0.362865,1.145352,0.273127,0.394602,-31.277768,-5.417332,11.300464
0.380000,-1.341715,-2.013831,1.423117,0.352064,0.071981,-0.069624,1.736545,0.386889,-0.358353,0.837285,0.221072,0.508079,-30.318385,-4.990172,11.390679
0.390000,-1.338107,-2.013091,1.422403,0.369467,0.075860,-0.073180,1.743419,0.388857,-0.352701,0.539316,0.173391,0.622330,-29.259540,-4.542803,11.454981
0.400000,-1.334326,-2.012313,1.421654,0.386923,0.079756,-0.076674,1.747368,0.390372,-0.345904,0.252394,0.130274,0.737084,-28.110811,-4.078024,11.490952
0.410000,-1.330369,-2.011496,1.420870,0.404405,0.083666,-0.080094,1.748507,0.391479,-0.337960,-0.022555,0.091982,0.851952,-26.883724,-3.601229,11.498538
0.420000,-1.326237,-2.010640,1.420052,0.421884,0.087585,-0.083429,1.746959,0.392227,-0.328865,-0.284957,0.058405,0.966837,-25.585673,-3.112304,11.472663
0.430000,-1.321931,-2.009745,1.419202,0.439335,0.091509,-0.086668,1.742853,0.392664,-0.318624,-0.534063,0.029768,1.081285,-24.225998,-2.613731,11.410617
0.440000,-1.317451,-2.008810,1.418319,0.456733,0.095437,-0.089798,1.736324,0.392839,-0.307243,-0.769303,0.006155,1.194920,-22.814040,-2.107991,11.309690
0.450000,-1.312797,-2.007836,1.417406,0.474054,0.099365,-0.092809,1.727514,0.392804,-0.294730,-0.990201,-0.012376,1.307340,-21.359139,-1.597566,11.167175
0.460000,-1.307970,-2.006823,1.416463,0.491276,0.103293,-0.095689,1.716573,0.392610,-0.281096,-1.196005,-0.025697,1.418602,-19.879959,-1.087258,10.968094
0.470000,-1.302972,-2.005770,1.415493,0.508379,0.107217,-0.098427,1.703644,0.392307,-0.266365,-1.387299,-0.034018,1.527098,-18.375376,-0.576943,10.723506
0.480000,-1.297803,-2.004678,1.414495,0.525343,0.111139,-0.101013,1.688878,0.391947,-0.250563,-1.563455,-0.037244,1.632916,-16.853587,-0.068819,10.432204
0.490000,-1.292466,-2.003547,1.413473,0.542151,0.115056,-0.103435,1.672426,0.391579,-0.233718,-1.724341,-0.035409,1.735582,-15.322792,0.434918,10.092980
0.500000,-1.286961,-2.002377,1.412427,0.558786,0.118970,-0.105684,1.654442,0.391255,-0.215863,-1.869908,-0.028567,1.834612,-13.791190,0.932069,9.704627
0.510000,-1.281290,-2.001168,1.411360,0.575235,0.122882,-0.107749,1.635085,0.391026,-0.197031,-1.999569,-0.016642,1.930288,-12.282655,1.416539,9.246218
0.520000,-1.275457,-1.999919,1.410273,0.591484,0.126791,-0.109622,1.614501,0.390938,-0.177274,-2.114907,-0.000097,2.020253,-10.787791,1.890506,8.738679
0.530000,-1.269461,-1.998632,1.409168,0.607521,0.130701,-0.111292,1.592837,0.391040,-0.156643,-2.215391,0.021127,2.104902,-9.312876,2.352251,8.183217
0.540000,-1.263307,-1.997305,1.408048,0.623337,0.134613,-0.112752,1.570241,0.391376,-0.135195,-2.301252,0.046901,2.183761,-7.864192,2.800055,7.581039
0.550000,-1.256995,-1.995940,1.406914,0.638923,0.138529,-0.113993,1.546860,0.391992,-0.112989,-2.372783,0.077076,2.256371,-6.448016,3.232197,6.933353
0.560000,-1.250529,-1.994535,1.405769,0.654272,0.142454,-0.115010,1.522841,0.392934,-0.090082,-2.429568,0.111686,2.323032,-5.090154,3.641933,6.222382
0.570000,-1.243911,-1.993091,1.404614,0.669378,0.146389,-0.115793,1.498313,0.394239,-0.066553,-2.473857,0.150078,2.381530,-3.774969,4.033184,5.470641
0.580000,-1.237143,-1.991607,1.403454,0.684237,0.150340,-0.116339,1.473407,0.395948,-0.042477,-2.505223,0.192285,2.432321,-2.506349,4.404845,4.681662
0.590000,-1.230227,-1.990084,1.402289,0.698846,0.154310,-0.116641,1.448250,0.398097,-0.017933,-2.524152,0.238106,2.475051,-1.288182,4.755812,3.858976
0.600000,-1.223166,-1.988521,1.401122,0.713202,0.158303,-0.116696,1.422963,0.400721,0.006996,-2.531168,0.287328,2.509400,-0.124359,5.084981,3.006115
0.610000,-1.215964,-1.986918,1.399955,0.727305,0.162326,-0.116500,1.397673,0.403856,0.032231,-2.526047,0.339927,2.535556,0.961384,5.386251,2.114691
0.620000,-1.208621,-1.985274,1.398792,0.741155,0.166382,-0.116051,1.372478,0.407530,0.057677,-2.511253,0.395198,2.552154,1.987437,5.664127,1.201615
0.630000,-1.201141,-1.983590,1.397635,0.754755,0.170478,-0.115346,1.347481,0.411769,0.083243,-2.486502,0.453130,2.559533,2.952344,5.918115,0.271877
0.640000,-1.193527,-1.981864,1.396486,0.768106,0.174619,-0.114386,1.322779,0.416600,0.108837,-2.452415,0.513479,2.557552,3.854647,6.147722,-0.669531
0.650000,-1.185780,-1.980097,1.395348,0.781212,0.178812,-0.113170,1.298462,0.422046,0.134363,-2.409623,0.576001,2.546120,4.692888,6.352456,-1.617617
0.660000,-1.177904,-1.978288,1.394224,0.794076,0.183062,-0.111699,1.274620,0.428128,0.159728,-2.358122,0.640596,2.525270,5.449100,6.527971,-2.569308
0.670000,-1.169899,-1.976436,1.393115,0.806706,0.187377,-0.109976,1.251323,0.434863,0.184837,-2.300120,0.706648,2.494831,6.140355,6.678099,-3.517460
0.680000,-1.161770,-1.974540,1.392025,0.819105,0.191762,-0.108004,1.228640,0.442266,0.209593,-2.235529,0.774074,2.454950,6.767219,6.802821,-4.456850
0.690000,-1.153518,-1.972600,1.390956,0.831281,0.196224,-0.105786,1.206633,0.450349,0.233905,-2.164989,0.842620,2.405741,7.330255,6.902115,-5.382250
0.700000,-1.145145,-1.970615,1.389910,0.843240,0.200771,-0.103327,1.185358,0.459121,0.257678,-2.089135,0.912031,2.347369,7.830026,6.975960,-6.288434
0.710000,-1.136654,-1.968585,1.388890,0.854990,0.205409,-0.100634,1.164870,0.468592,0.280819,-2.008181,0.982136,2.279754,8.256582,7.022253,-7.162611
0.720000,-1.128046,-1.966507,1.387898,0.866540,0.210145,-0.097713,1.145207,0.478765,0.303244,-1.923737,1.052485,2.203875,8.622288,7.043312,-8.008047
0.730000,-1.119324,-1.964381,1.386937,0.877897,0.214987,-0.094572,1.126406,0.489642,0.324869,-1.835932,1.122919,2.119703,8.928998,7.039370,-8.820445
0.740000,-1.110489,-1.962207,1.386008,0.889071,0.219941,-0.091219,1.108498,0.501223,0.345612,-1.745347,1.193190,2.027591,9.178561,7.010661,-9.595505
0.750000,-1.101543,-1.959982,1.385113,0.900070,0.225014,-0.087663,1.091507,0.513505,0.365395,-1.652545,1.263051,1.927932,9.372830,6.957420,-10.328927
0.760000,-1.092488,-1.957706,1.384255,0.910904,0.230213,-0.083914,1.075454,0.526482,0.384141,-1.557919,1.332276,1.820608,9.509867,6.879398,-11.002336
0.770000,-1.083325,-1.955377,1.383435,0.921583,0.235546,-0.079984,1.060352,0.540147,0.401786,-1.462349,1.400580,1.707419,9.595776,6.777370,-11.627233
0.780000,-1.074057,-1.952995,1.382656,0.932115,0.241018,-0.075882,1.046209,0.554490,0.418269,-1.366166,1.467745,1.588234,9.632873,6.651631,-12.201043
0.790000,-1.064684,-1.950557,1.381918,0.942510,0.246638,-0.071622,1.033029,0.569497,0.433532,-1.269846,1.533535,1.463577,9.623474,6.502473,-12.721192
0.800000,-1.055207,-1.948061,1.381224,0.952778,0.252410,-0.067216,1.020811,0.585155,0.447524,-1.173844,1.597717,1.333997,9.569895,6.330190,-13.185103
0.810000,-1.045628,-1.945508,1.380574,0.962929,0.258343,-0.062676,1.009549,0.601445,0.460191,-1.078655,1.660048,1.199415,9.476148,6.135434,-13.573656
0.820000,-1.035949,-1.942894,1.379971,0.972973,0.264441,-0.058017,0.999234,0.618349,0.471500,-0.984529,1.720335,1.061983,9.342644,5.918095,-13.902847
0.830000,-1.026169,-1.940218,1.379414,0.982917,0.270712,-0.053251,0.989854,0.635845,0.481420,-0.891928,1.778336,0.921558,9.171490,5.678423,-14.172128
0.840000,-1.016291,-1.937479,1.378906,0.992773,0.277160,-0.048393,0.981390,0.653908,0.489924,-0.801218,1.833829,0.778742,8.964794,5.416667,-14.380948
0.850000,-1.006314,-1.934675,1.378447,1.002548,0.283792,-0.043457,0.973822,0.672512,0.496989,-0.712743,1.886596,0.634143,8.724663,5.133077,-14.528760
0.860000,-0.996240,-1.931803,1.378037,1.012252,0.290612,-0.038458,0.967124,0.691630,0.502596,-0.627011,1.936413,0.487772,8.457807,4.828063,-14.599854
0.870000,-0.986069,-1.928862,1.377678,1.021893,0.297626,-0.033410,0.961272,0.711230,0.506743,-0.543892,1.983079,0.341670,8.161168,4.501693,-14.610698
0.880000,-0.975802,-1.925850,1.377369,1.031480,0.304838,-0.028328,0.956236,0.731280,0.509430,-0.463882,2.026376,0.195755,7.836290,4.154198,-14.562597
0.890000,-0.965440,-1.922764,1.377111,1.041021,0.312253,-0.023226,0.951983,0.751745,0.510661,-0.387255,2.066093,0.050610,7.484717,3.785806,-14.456859
0.900000,-0.954982,-1.919604,1.376905,1.050522,0.319874,-0.018119,0.948479,0.772589,0.510447,-0.314271,2.102023,-0.093195,7.107993,3.396748,-14.294790
0.910000,-0.944429,-1.916366,1.376749,1.059993,0.327706,-0.013022,0.945683,0.793773,0.508799,-0.245355,2.134001,-0.235535,6.712239,2.986219,-14.066780
0.920000,-0.933782,-1.913049,1.376644,1.069438,0.335751,-0.007948,0.943558,0.815255,0.505745,-0.180306,2.161727,-0.374843,6.293863,2.555610,-13.786390
0.930000,-0.923041,-1.909650,1.376590,1.078866,0.344012,-0.002911,0.942062,0.836993,0.501312,-0.119550,2.185048,-0.511097,5.853847,2.105277,-13.456265
0.940000,-0.912205,-1.906168,1.376586,1.088282,0.352491,0.002074,0.941152,0.858941,0.495534,-0.063298,2.203768,-0.643812,5.393174,1.635575,-13.079048
0.950000,-0.901275,-1.902600,1.376631,1.097691,0.361191,0.006995,0.940781,0.881052,0.488449,-0.011752,2.217696,-0.772530,4.912830,1.146862,-12.657384
0.960000,-0.890251,-1.898943,1.376725,1.107099,0.370113,0.011839,0.940900,0.903279,0.480096,0.034803,2.226749,-0.897025,4.416148,0.636814,-12.188729
0.970000,-0.879133,-1.895197,1.376868,1.116510,0.379257,0.016593,0.941460,0.925570,0.470525,0.076406,2.230492,-1.016407,3.901473,0.108795,-11.681550
0.980000,-0.867921,-1.891358,1.377057,1.125929,0.388624,0.021245,0.942410,0.947871,0.459786,0.112775,2.228867,-1.130539,3.369500,-0.436510,-11.139125
0.990000,-0.856615,-1.887424,1.377292,1.135360,0.398214,0.025785,0.943697,0.970129,0.447933,0.143740,2.221706,-1.239083,2.820925,-0.998419,-10.564734
1.000000,-0.845214,-1.883393,1.377572,1.144804,0.408026,0.030200,0.945267,0.992286,0.435024,0.169140,2.208846,-1.341738,2.256444,-1.576245,-9.961656
1.010000,-0.833718,-1.879262,1.377896,1.154266,0.418059,0.034482,0.947062,1.014288,0.421119,0.188850,2.190295,-1.438209,1.675953,-2.173452,-9.333756
1.020000,-0.822128,-1.875031,1.378261,1.163746,0.428311,0.038620,0.949024,1.036072,0.406281,0.202647,2.165515,-1.528313,1.081044,-2.784701,-8.683656
1.030000,-0.810443,-1.870695,1.378667,1.173246,0.438780,0.042605,0.951094,1.057578,0.390575,0.210426,2.134558,-1.611818,0.472511,-3.408799,-8.014562
1.040000,-0.798663,-1.866254,1.379113,1.182768,0.449462,0.046429,0.953212,1.078742,0.374067,0.212054,2.097300,-1.688551,-0.148852,-4.044553,-7.329681
1.050000,-0.786788,-1.861705,1.379595,1.192311,0.460353,0.050084,0.955315,1.099502,0.356827,0.207408,2.053632,-1.758370,-0.782252,-4.690773,-6.632222
1.060000,-0.774817,-1.857047,1.380114,1.201874,0.471450,0.053563,0.957340,1.119795,0.338925,0.196511,2.003646,-1.820964,-1.430419,-5.351120,-5.930465
1.070000,-0.762750,-1.852276,1.380666,1.211457,0.482747,0.056860,0.959223,1.139553,0.320431,0.178924,1.946801,-1.876730,-2.088605,-6.018953,-5.221922
1.080000,-0.750588,-1.847391,1.381250,1.221058,0.494239,0.059970,0.960897,1.158709,0.301414,0.154710,1.883248,-1.925388,-2.755585,-6.692485,-4.509179
1.090000,-0.738329,-1.842390,1.381865,1.230674,0.505919,0.062887,0.962295,1.177196,0.281947,0.123787,1.812939,-1.966908,-3.430133,-7.369929,-3.794823
1.100000,-0.725974,-1.837272,1.382508,1.240303,0.517781,0.065607,0.963350,1.194945,0.262100,0.086086,1.735843,-2.001288,-4.111025,-8.049498,-3.081439
1.110000,-0.713523,-1.832034,1.383176,1.249940,0.529816,0.068128,0.963996,1.211892,0.241948,0.041742,1.652125,-2.028261,-4.801904,-8.733884,-2.378888
1.120000,-0.700976,-1.826675,1.383869,1.259581,0.542016,0.070445,0.964162,1.227965,0.221558,-0.009746,1.561371,-2.048558,-5.496079,-9.416274,-1.681590
1.130000,-0.688332,-1.821193,1.384585,1.269221,0.554372,0.072558,0.963778,1.243096,0.201000,-0.068184,1.463814,-2.061916,-6.191732,-10.094332,-0.991241
1.140000,-0.675591,-1.815587,1.385320,1.278854,0.566874,0.074465,0.962775,1.257219,0.180343,-0.133579,1.359507,-2.068412,-6.887039,-10.765722,-0.309537
1.150000,-0.662754,-1.809855,1.386073,1.288474,0.579512,0.076165,0.961083,1.270264,0.159654,-0.205918,1.248529,-2.068141,-7.580181,-11.428111,0.361827
1.160000,-0.649822,-1.803997,1.386842,1.298073,0.592276,0.077658,0.958635,1.282169,0.139005,-0.284993,1.131099,-2.060950,-8.273801,-12.082112,1.014435
1.170000,-0.636793,-1.798010,1.387626,1.307644,0.605152,0.078945,0.955360,1.292865,0.118457,-0.371173,1.007066,-2.047596,-8.961067,-12.722078,1.654136
1.180000,-0.623669,-1.791893,1.388421,1.317178,0.618129,0.080028,0.951189,1.302289,0.098074,-0.464185,0.876714,-2.027913,-9.639610,-13.345315,2.280057
1.190000,-0.610450,-1.785647,1.389226,1.326665,0.631193,0.080908,0.946054,1.310378,0.077919,-0.563929,0.740224,-2.002043,-10.307062,-13.949126,2.891326
1.200000,-0.597136,-1.779269,1.390038,1.336095,0.644332,0.081587,0.939888,1.317073,0.058053,-0.670281,0.597805,-1.970138,-10.961057,-14.530815,3.487070
1.210000,-0.583728,-1.772760,1.390857,1.345459,0.657530,0.082070,0.932628,1.322316,0.038538,-0.783001,0.449705,-1.932207,-11.601655,-15.088056,4.062653
1.220000,-0.570227,-1.766118,1.391679,1.354744,0.670773,0.082359,0.924207,1.326049,0.019428,-0.902144,0.296152,-1.888773,-12.223761,-15.617736,4.621428
1.230000,-0.556633,-1.759344,1.392503,1.363939,0.684045,0.082460,0.914565,1.328222,0.000781,-1.027405,0.137451,-1.839836,-12.824710,-16.117114,5.162983
1.240000,-0.542949,-1.752437,1.393328,1.373031,0.697332,0.082377,0.903640,1.328782,-0.017351,-1.158559,-0.026080,-1.785572,-13.401838,-16.583449,5.686909
1.250000,-0.529173,-1.745398,1.394150,1.382007,0.710616,0.082115,0.891375,1.327685,-0.034914,-1.295354,-0.194098,-1.726158,-13.952478,-17.013998,6.192792
1.260000,-0.515309,-1.738225,1.394969,1.390854,0.723880,0.081680,0.877714,1.324885,-0.051858,-1.437542,-0.366348,-1.661794,-14.473206,-17.403079,6.680627
1.270000,-0.501357,-1.730920,1.395783,1.399557,0.737108,0.081080,0.862607,1.320346,-0.068134,-1.584746,-0.542155,-1.592627,-14.962208,-17.751251,7.149549
1.280000,-0.487318,-1.723483,1.396590,1.408101,0.750281,0.080320,0.846004,1.314031,-0.083695,-1.736671,-0.721229,-1.518867,-15.416914,-18.056132,7.599096
1.290000,-0.473195,-1.715915,1.397389,1.416471,0.763382,0.079409,0.827859,1.305912,-0.098496,-1.892962,-0.903125,-1.440711,-15.834750,-18.315341,8.028807
1.300000,-0.458989,-1.708216,1.398178,1.424653,0.776393,0.078353,0.808131,1.295961,-0.112495,-2.053235,-1.087375,-1.358359,-16.213146,-18.526496,8.438221
1.310000,-0.444703,-1.700387,1.398956,1.432629,0.789295,0.077161,0.786780,1.284155,-0.125652,-2.217262,-1.273746,-1.272174,-16.545056,-18.680674,8.830865
1.320000,-0.430338,-1.692430,1.399721,1.440383,0.802070,0.075843,0.763776,1.270482,-0.137926,-2.384189,-1.461108,-1.181992,-16.832929,-18.782836,9.201802
1.330000,-0.415896,-1.684346,1.400472,1.447899,0.814699,0.074406,0.739088,1.254931,-0.149280,-2.553767,-1.649224,-1.088213,-17.074739,-18.831402,9.550084
1.340000,-0.401380,-1.676137,1.401209,1.455159,0.827162,0.072860,0.712693,1.237497,-0.159679,-2.725523,-1.837552,-0.991069,-17.268462,-18.824789,9.874760
1.350000,-0.386794,-1.667804,1.401929,1.462147,0.839442,0.071216,0.684572,1.218181,-0.169091,-2.898969,-2.025531,-0.890800,-17.412073,-18.761419,10.174883
1.360000,-0.372138,-1.659349,1.402633,1.468845,0.851520,0.069482,0.654706,1.196985,-0.177487,-3.073912,-2.212977,-0.787856,-17.495439,-18.629820,10.454542
1.370000,-0.357418,-1.650774,1.403318,1.475235,0.863376,0.067670,0.623092,1.173927,-0.184839,-3.249062,-2.398373,-0.682024,-17.525637,-18.439513,10.707131
1.380000,-0.342635,-1.642082,1.403986,1.481301,0.874992,0.065789,0.589725,1.149025,-0.191120,-3.424244,-2.581570,-0.573809,-17.501636,-18.190128,10.931085
1.390000,-0.327793,-1.633275,1.404634,1.487024,0.886350,0.063851,0.554608,1.122304,-0.196308,-3.598911,-2.761977,-0.463503,-17.422403,-17.881296,11.124837
1.400000,-0.312896,-1.624356,1.405263,1.492387,0.897432,0.061866,0.517750,1.093797,-0.200384,-3.772505,-2.938997,-0.351418,-17.286907,-17.512648,11.286821
1.410000,-0.297946,-1.615327,1.405871,1.497373,0.908221,0.059847,0.479159,1.063533,-0.203333,-3.944898,-3.112518,-0.237968,-17.083013,-17.071480,11.417744
1.420000,-0.282949,-1.606193,1.406459,1.501965,0.918697,0.057804,0.438860,1.031562,-0.205140,-4.114471,-3.280780,-0.123282,-16.822153,-16.571267,11.513487
1.430000,-0.267909,-1.596955,1.407027,1.506145,0.928846,0.055748,0.396879,0.997935,-0.205796,-4.281152,-3.443750,-0.007821,-16.504654,-16.013149,11.572208
1.440000,-0.252828,-1.587617,1.407574,1.509897,0.938651,0.053692,0.353248,0.962706,-0.205295,-4.444376,-3.600854,0.108033,-16.130843,-15.398266,11.592059
1.450000,-0.237712,-1.578183,1.408101,1.513204,0.948095,0.051646,0.308005,0.925939,-0.203635,-4.603582,-3.751530,0.223884,-15.701048,-14.727759,11.571199
1.460000,-0.222565,-1.568656,1.408607,1.516052,0.957165,0.049623,0.261187,0.887694,-0.200817,-4.758709,-3.895742,0.339477,-15.203024,-13.989771,11.503689
1.470000,-0.207393,-1.559041,1.409094,1.518423,0.965845,0.047633,0.212848,0.848050,-0.196848,-4.908025,-4.031733,0.453994,-14.651211,-13.200031,11.392278
1.480000,-0.192199,-1.549341,1.409560,1.520304,0.974121,0.045689,0.163045,0.807086,-0.191741,-5.051561,-4.159580,0.567172,-14.047477,-12.361273,11.235623
1.490000,-0.176988,-1.539560,1.410008,1.521679,0.981982,0.043802,0.111838,0.764887,-0.185511,-5.188807,-4.278804,0.678551,-13.393690,-11.476228,11.032380
1.500000,-0.161767,-1.529702,1.410437,1.522536,0.989415,0.041983,0.059292,0.721540,-0.178178,-5.319274,-4.388959,0.787660,-12.691717,-10.547628,10.781205
1.510000,-0.146539,-1.519773,1.410848,1.522861,0.996410,0.040242,0.005472,0.677135,-0.169762,-5.442907,-4.490015,0.894460,-11.932827,-9.568242,10.469414
1.520000,-0.131311,-1.509776,1.411242,1.522642,1.002955,0.038591,-0.049540,0.631773,-0.160300,-5.558260,-4.580646,0.997390,-11.130783,-8.551986,10.108393
1.530000,-0.116088,-1.499715,1.411620,1.521867,1.009042,0.037040,-0.105665,0.585556,-0.149827,-5.665389,-4.660945,1.096464,-10.288752,-7.502812,9.698186
1.540000,-0.100876,-1.489596,1.411983,1.520525,1.014664,0.035598,-0.162819,0.538590,-0.138385,-5.763912,-4.730605,1.191190,-9.409899,-6.424672,9.238840
1.550000,-0.085680,-1.479424,1.412332,1.518607,1.019812,0.034275,-0.220914,0.490981,-0.126020,-5.853475,-4.789356,1.281077,-8.497390,-5.321520,8.730399
1.560000,-0.070506,-1.469202,1.412669,1.516104,1.024482,0.033080,-0.279860,0.442838,-0.112775,-5.933949,-4.837077,1.366264,-7.549572,-4.194498,8.157011
1.570000,-0.055360,-1.458936,1.412994,1.513008,1.028667,0.032022,-0.339561,0.394277,-0.098714,-6.004592,-4.873315,1.444770,-6.575019,-3.050711,7.536566
1.580000,-0.040248,-1.448630,1.413310,1.509311,1.032366,0.031108,-0.399919,0.345411,-0.083901,-6.065373,-4.898049,1.516845,-5.577485,-1.894456,6.871053
1.590000,-0.025175,-1.438290,1.413617,1.505007,1.035575,0.030346,-0.460835,0.296355,-0.068400,-6.116078,-4.911177,1.582048,-4.560725,-0.730029,6.162466
1.600000,-0.010149,-1.427920,1.413917,1.500092,1.038293,0.029742,-0.522206,0.247226,-0.052284,-6.156536,-4.912637,1.639957,-3.528495,0.438273,5.412796
1.610000,0.004824,-1.417526,1.414212,1.494562,1.040520,0.029302,-0.583930,0.198143,-0.035620,-6.186548,-4.902228,1.690812,-2.486094,1.601476,4.607894
1.620000,0.019740,-1.407111,1.414504,1.488413,1.042256,0.029031,-0.645902,0.149220,-0.018495,-6.206161,-4.880413,1.732719,-1.435544,2.760535,3.767869
1.630000,0.034591,-1.396682,1.414793,1.481643,1.043505,0.028934,-0.708018,0.100573,-0.000994,-6.215243,-4.847043,1.766066,-0.380410,3.911727,2.896688
1.640000,0.049371,-1.386243,1.415083,1.474252,1.044269,0.029012,-0.770172,0.052317,0.016797,-6.213766,-4.802217,1.790562,0.675740,5.051328,1.998320
1.650000,0.064074,-1.375798,1.415374,1.466240,1.044553,0.029270,-0.832258,0.004567,0.034787,-6.201737,-4.746068,1.805955,1.729342,6.175614,1.076733
1.660000,0.078693,-1.365353,1.415669,1.457608,1.044362,0.029708,-0.894169,-0.042563,0.052890,-6.178975,-4.678415,1.812502,2.771151,7.271952,0.124033
1.670000,0.093224,-1.354913,1.415969,1.448358,1.043704,0.030328,-0.955803,-0.088965,0.071005,-6.146091,-4.600303,1.808919,3.803974,8.346620,-0.842497
1.680000,0.107658,-1.344481,1.416276,1.438493,1.042586,0.031128,-1.017057,-0.134534,0.089036,-6.102935,-4.511564,1.795624,4.824941,9.396986,-1.817438
1.690000,0.121991,-1.334062,1.416592,1.428018,1.041016,0.032108,-1.077828,-0.179162,0.106885,-6.049641,-4.412453,1.772560,5.831181,10.420417,-2.795368
1.700000,0.136217,-1.323662,1.416919,1.416938,1.039006,0.033265,-1.138016,-0.222749,0.124454,-5.986370,-4.303254,1.739725,6.819824,11.414281,-3.770867
1.710000,0.150328,-1.313284,1.417258,1.405260,1.036565,0.034596,-1.197520,-0.265191,0.141649,-5.913033,-4.183910,1.697316,7.780952,12.366730,-4.742227
1.720000,0.164320,-1.302932,1.417611,1.392990,1.033706,0.036096,-1.256245,-0.306396,0.158369,-5.830511,-4.055620,1.645092,8.719603,13.285475,-5.699861
1.730000,0.178186,-1.292611,1.417981,1.380138,1.030442,0.037761,-1.314099,-0.346273,0.174519,-5.738723,-3.918318,1.583384,9.633772,14.169014,-6.637894
1.740000,0.191921,-1.282325,1.418367,1.366712,1.026785,0.039584,-1.370990,-0.384734,0.190005,-5.637924,-3.772362,1.512419,10.521449,15.015842,-7.550451
1.750000,0.205518,-1.272077,1.418773,1.352722,1.022752,0.041559,-1.426829,-0.421693,0.204737,-5.528389,-3.618128,1.432480,11.380627,15.824457,-8.431657
1.760000,0.218973,-1.261871,1.419199,1.338179,1.018357,0.043676,-1.481527,-0.457067,0.218624,-5.410169,-3.455752,1.343659,12.203135,16.586939,-9.269303
1.770000,0.232280,-1.251711,1.419647,1.323095,1.013616,0.045928,-1.535005,-0.490783,0.231583,-5.284157,-3.286238,1.246952,12.993884,17.308985,-10.064623
1.780000,0.245434,-1.241600,1.420118,1.307483,1.008547,0.048305,-1.587184,-0.522768,0.243537,-5.150402,-3.109709,1.142524,13.751620,17.989877,-10.812520
1.790000,0.258428,-1.231541,1.420613,1.291356,1.003167,0.050795,-1.637988,-0.552955,0.254410,-5.009239,-2.926580,1.030877,14.475090,18.628895,-11.507893
1.800000,0.271259,-1.221537,1.421134,1.274728,0.997494,0.053389,-1.687345,-0.581279,0.264132,-4.861018,-2.737273,0.912559,15.163041,19.225322,-12.145643
1.810000,0.283921,-1.211592,1.421681,1.257614,0.991548,0.056074,-1.735185,-0.607680,0.272634,-4.705933,-2.542125,0.787551,15.809982,19.776101,-12.704956
1.820000,0.296410,-1.201707,1.422256,1.240030,0.985347,0.058838,-1.781443,-0.632104,0.279866,-4.544754,-2.341793,0.657978,16.419417,20.283138,-13.198373
1.830000,0.308720,-1.191886,1.422858,1.221991,0.978912,0.061667,-1.826060,-0.654500,0.285778,-4.377672,-2.136610,0.523813,16.990611,20.746001,-13.622717
1.840000,0.320848,-1.182130,1.423489,1.203514,0.972264,0.064549,-1.868978,-0.674822,0.290329,-4.205072,-1.927021,0.385764,17.522831,21.164257,-13.974815
1.850000,0.332789,-1.172441,1.424149,1.184617,0.965423,0.067469,-1.910144,-0.693027,0.293483,-4.027348,-1.713475,0.244568,18.015342,21.537475,-14.251489
1.860000,0.344539,-1.162822,1.424839,1.165317,0.958410,0.070414,-1.949508,-0.709080,0.295203,-3.844796,-1.496452,0.100121,18.464779,21.865949,-14.427458
1.870000,0.356094,-1.153273,1.425558,1.145633,0.951249,0.073369,-1.987026,-0.722946,0.295481,-3.658071,-1.276342,-0.044704,18.873361,22.148430,-14.524362
1.880000,0.367451,-1.143797,1.426306,1.125583,0.943959,0.076319,-2.022657,-0.734598,0.294307,-3.467466,-1.053639,-0.190101,19.240675,22.384399,-14.541732
1.890000,0.378605,-1.134394,1.427084,1.105186,0.936564,0.079250,-2.056364,-0.744012,0.291679,-3.273396,-0.828810,-0.335272,19.566311,22.573333,-14.479100
1.900000,0.389553,-1.125066,1.427891,1.084462,0.929086,0.082147,-2.088114,-0.751169,0.287605,-3.076280,-0.602330,-0.479415,19.849855,22.714710,-14.335999
1.910000,0.400293,-1.115813,1.428727,1.063431,0.921548,0.084997,-2.117880,-0.756055,0.282087,-2.876452,-0.374722,-0.622671,20.088655,22.809167,-14.088008
1.920000,0.410821,-1.106635,1.429591,1.042111,0.913973,0.087785,-2.145636,-0.758661,0.275161,-2.674549,-0.146361,-0.761983,20.284815,22.854883,-13.761545
1.930000,0.421134,-1.097533,1.430482,1.020525,0.906383,0.090496,-2.171365,-0.758982,0.266860,-2.470899,0.082211,-0.897648,20.438195,22.851197,-13.359074
1.940000,0.431230,-1.088508,1.431400,0.998691,0.898801,0.093118,-2.195050,-0.757018,0.257223,-2.265928,0.310496,-1.028919,20.548660,22.797446,-12.883061
1.950000,0.441107,-1.079557,1.432344,0.976630,0.891250,0.095636,-2.216680,-0.752774,0.246298,-2.060069,0.537991,-1.155072,20.616070,22.692966,-12.335971
1.960000,0.450762,-1.070682,1.433313,0.954364,0.883753,0.098040,-2.236248,-0.746262,0.234132,-1.853608,0.764244,-1.276228,20.636672,22.535567,-11.699593
1.970000,0.460194,-1.061882,1.434305,0.931912,0.876332,0.100315,-2.253753,-0.737496,0.220796,-1.647317,0.988597,-1.389775,20.614387,22.326302,-10.999599
1.980000,0.469400,-1.053155,1.435319,0.909296,0.869010,0.102452,-2.269196,-0.726497,0.206361,-1.441462,1.210596,-1.496025,20.549521,22.064694,-10.240987
1.990000,0.478379,-1.044501,1.436353,0.886535,0.861810,0.104439,-2.282585,-0.713293,0.190902,-1.236467,1.429715,-1.594416,20.442379,21.750268,-9.428752
2.000000,0.487130,-1.035919,1.437407,0.863651,0.854752,0.106267,-2.293930,-0.697915,0.174500,-1.032754,1.645424,-1.684438,20.293267,21.382548,-8.567892
2.010000,0.495652,-1.027406,1.438478,0.840663,0.847858,0.107926,-2.303243,-0.680395,0.157237,-0.830513,1.857428,-1.766134,20.096732,20.954963,-7.650647
2.020000,0.503943,-1.018961,1.439565,0.817593,0.841151,0.109409,-2.310547,-0.660781,0.139209,-0.630698,2.064617,-1.837897,19.859542,20.473879,-6.696331
2.030000,0.512004,-1.010582,1.440665,0.794459,0.834649,0.110708,-2.315866,-0.639120,0.120511,-0.433454,2.266728,-1.899959,19.582707,19.939567,-5.711505
2.040000,0.519832,-1.002267,1.441778,0.771282,0.828375,0.111817,-2.319226,-0.615465,0.101243,-0.239173,2.463232,-1.952047,19.267239,19.352298,-4.702725
2.050000,0.527429,-0.994014,1.442901,0.748081,0.822347,0.112732,-2.320660,-0.589876,0.081504,-0.048235,2.653599,-1.993955,18.914146,18.712343,-3.676551
2.060000,0.534794,-0.985819,1.444032,0.724875,0.816584,0.113446,-2.320200,-0.562411,0.061397,0.139265,2.837713,-2.025612,18.517451,18.009624,-2.637763
2.070000,0.541927,-0.977681,1.445169,0.701683,0.811104,0.113959,-2.317889,-0.533146,0.041027,0.322310,3.014083,-2.046776,18.086009,17.256027,-1.594916
2.080000,0.548828,-0.969596,1.446311,0.678523,0.805926,0.114266,-2.313769,-0.502155,0.020497,0.500875,3.182670,-2.057520,17.621686,16.453090,-0.554787
2.090000,0.555497,-0.961562,1.447454,0.655414,0.801067,0.114368,-2.307887,-0.469520,-0.000089,0.674641,3.342986,-2.057904,17.126349,15.602352,0.475849
2.100000,0.561936,-0.953574,1.448597,0.632371,0.796541,0.114265,-2.300293,-0.435325,-0.020627,0.843305,3.494562,-2.048057,16.601863,14.705350,1.490214
2.110000,0.568145,-0.945630,1.449739,0.609413,0.792365,0.113956,-2.291036,-0.399654,-0.041013,1.006849,3.637427,-2.027790,16.043474,13.751415,2.471788
2.120000,0.574125,-0.937725,1.450876,0.586556,0.788553,0.113445,-2.280175,-0.362609,-0.061151,1.164388,3.769997,-1.998282,15.460480,12.755787,3.424731
2.130000,0.579877,-0.929857,1.452007,0.563815,0.785117,0.112734,-2.267768,-0.324288,-0.080947,1.315986,3.892414,-1.959410,14.855558,11.721498,4.343461
2.140000,0.585402,-0.922022,1.453130,0.541205,0.782071,0.111828,-2.253876,-0.284795,-0.100309,1.461435,4.004308,-1.911545,14.231385,10.651582,5.222395
2.150000,0.590701,-0.914215,1.454243,0.518742,0.779425,0.110730,-2.238561,-0.244238,-0.119149,1.600558,4.105337,-1.855113,13.590637,9.549070,6.055950
2.160000,0.595777,-0.906432,1.455344,0.496439,0.777189,0.109446,-2.221884,-0.202722,-0.137376,1.733371,4.195598,-1.789847,12.931707,8.406715,6.819615
2.170000,0.600631,-0.898669,1.456431,0.474309,0.775373,0.107984,-2.203915,-0.160365,-0.154922,1.859348,4.273846,-1.718057,12.262082,7.239090,7.529052
2.180000,0.605264,-0.890923,1.457503,0.452364,0.773984,0.106351,-2.184720,-0.117284,-0.171715,1.978588,4.340310,-1.639457,11.584962,6.050486,8.180995
2.190000,0.609678,-0.883188,1.458558,0.430618,0.773029,0.104553,-2.164366,-0.073598,-0.187690,2.091033,4.394800,-1.554639,10.903550,4.845194,8.772179
2.200000,0.613877,-0.875461,1.459594,0.409081,0.772514,0.102600,-2.142922,-0.029428,-0.202789,2.196655,4.437172,-1.464227,10.221047,3.627507,9.299337
2.210000,0.617861,-0.867737,1.460609,0.387763,0.772442,0.100500,-2.120456,0.015106,-0.216948,2.295464,4.467508,-1.367953,9.540581,2.397062,9.735877
2.220000,0.621633,-0.860011,1.461603,0.366675,0.772817,0.098264,-2.097035,0.059881,-0.230135,2.387488,4.485310,-1.268694,8.865437,1.163375,10.104718
2.230000,0.625195,-0.852279,1.462574,0.345825,0.773640,0.095901,-2.072728,0.104771,-0.242311,2.472801,4.490780,-1.166086,8.198824,-0.068693,10.405449
2.240000,0.628550,-0.844536,1.463521,0.325223,0.774912,0.093421,-2.047601,0.149655,-0.253447,2.551504,4.483958,-1.060813,7.543955,-1.294281,10.637663
2.250000,0.631700,-0.836779,1.464442,0.304876,0.776632,0.090835,-2.021720,0.194410,-0.263521,2.623730,4.464933,-0.953562,6.904039,-2.508527,10.800949
2.260000,0.634649,-0.829002,1.465337,0.284791,0.778799,0.088154,-1.995150,0.238912,-0.272505,2.689433,4.433708,-0.844161,6.287633,-3.703195,10.873066
2.270000,0.637397,-0.821201,1.466205,0.264975,0.781410,0.085388,-1.967951,0.283045,-0.280403,2.749313,4.390787,-0.735350,5.691947,-4.877211,10.878111
2.280000,0.639949,-0.813373,1.467045,0.245434,0.784459,0.082549,-1.940183,0.326689,-0.287213,2.803350,4.336247,-0.626815,5.119537,-6.026127,10.818348
2.290000,0.642307,-0.805511,1.467856,0.226173,0.787941,0.079648,-1.911903,0.369732,-0.292942,2.851790,4.270363,-0.519192,4.572959,-7.145495,10.696042
2.300000,0.644473,-0.797612,1.468637,0.207197,0.791851,0.076694,-1.883165,0.412060,-0.297602,2.894904,4.193451,-0.413095,4.054770,-8.230866,10.513457
2.310000,0.646452,-0.789672,1.469389,0.188511,0.796180,0.073699,-1.854026,0.453560,-0.301204,2.932585,4.105437,-0.308521,3.577713,-9.266773,10.257839
2.320000,0.648245,-0.781687,1.470111,0.170118,0.800919,0.070673,-1.824529,0.494135,-0.303782,2.966111,4.007762,-0.207447,3.132909,-10.261135,9.948310
2.330000,0.649855,-0.773653,1.470803,0.152022,0.806059,0.067627,-1.794718,0.533683,-0.305364,2.995355,3.900364,-0.109721,2.721666,-11.210856,9.588973
2.340000,0.651286,-0.765565,1.471464,0.134225,0.811589,0.064569,-1.764635,0.572111,-0.305989,3.020660,3.783704,-0.015820,2.345293,-12.112834,9.183931
2.350000,0.652541,-0.757420,1.472094,0.116730,0.817497,0.061510,-1.734317,0.609328,-0.305695,3.042381,3.658276,0.073819,2.005097,-12.963972,8.737287
2.360000,0.653622,-0.749214,1.472694,0.099539,0.823772,0.058458,-1.703803,0.645243,-0.304526,3.060411,3.524019,0.159006,1.714416,-13.746393,8.247971
2.370000,0.654532,-0.740943,1.473263,0.082654,0.830398,0.055422,-1.673118,0.679783,-0.302532,3.076257,3.382873,0.238900,1.461056,-14.473585,7.725893
2.380000,0.655276,-0.732605,1.473802,0.066077,0.837362,0.052410,-1.642286,0.712877,-0.299766,3.089756,3.234736,0.313430,1.244854,-15.144259,7.175792
2.390000,0.655855,-0.724195,1.474312,0.049809,0.844650,0.049429,-1.611329,0.744457,-0.296282,3.101277,3.080180,0.382338,1.065644,-15.757125,6.602403
2.400000,0.656273,-0.715711,1.474791,0.033851,0.852246,0.046487,-1.580266,0.774461,-0.292138,3.111191,2.919790,0.445416,0.923263,-16.310894,6.010465
2.410000,0.656533,-0.707149,1.475242,0.018204,0.860134,0.043589,-1.549114,0.802829,-0.287395,3.119453,2.753622,0.502334,0.827943,-16.790584,5.408956
2.420000,0.656638,-0.698507,1.475663,0.002869,0.868297,0.040741,-1.517879,0.829519,-0.282112,3.127403,2.583567,0.553374,0.767850,-17.210275,4.797852
2.430000,0.656591,-0.689782,1.476057,-0.012153,0.876719,0.037948,-1.486567,0.854488,-0.276348,3.134923,2.409615,0.598273,0.741544,-17.570354,4.181370
2.440000,0.656396,-0.680972,1.476422,-0.026862,0.885381,0.035215,-1.455181,0.877700,-0.270167,3.142342,2.232358,0.636997,0.747588,-17.871209,3.563727
2.450000,0.656055,-0.672074,1.476761,-0.041257,0.894267,0.032546,-1.423720,0.899126,-0.263629,3.149978,2.052387,0.669558,0.784544,-18.113227,2.949141
2.460000,0.655572,-0.663086,1.477073,-0.055336,0.903358,0.029944,-1.392183,0.918736,-0.256801,3.157857,1.869898,0.695593,0.857911,-18.286936,2.352227
2.470000,0.654950,-0.654006,1.477360,-0.069100,0.912636,0.027411,-1.360560,0.936519,-0.249737,3.166917,1.686397,0.716172,0.958465,-18.403789,1.765532
2.480000,0.654191,-0.644832,1.477622,-0.082547,0.922082,0.024949,-1.328841,0.952461,-0.242497,3.177109,1.502006,0.730947,1.083918,-18.465382,1.191998
2.490000,0.653300,-0.635564,1.477859,-0.095676,0.931679,0.022561,-1.297013,0.966558,-0.235137,3.188671,1.317269,0.740066,1.231984,-18.473308,0.634571
2.500000,0.652279,-0.626198,1.478073,-0.108487,0.941407,0.020247,-1.265062,0.978807,-0.227714,3.201816,1.132714,0.743702,1.400376,-18.429162,0.096193
2.510000,0.651131,-0.616735,1.478265,-0.120977,0.951249,0.018007,-1.232972,0.989212,-0.220286,3.216614,0.948640,0.741571,1.589934,-18.329148,-0.407761
2.520000,0.649860,-0.607173,1.478434,-0.133146,0.961185,0.015841,-1.200723,0.997784,-0.212899,3.233527,0.766051,0.735070,1.794861,-18.180911,-0.888300
2.530000,0.648469,-0.597511,1.478582,-0.144991,0.971198,0.013749,-1.168295,1.004539,-0.205600,3.252554,0.585175,0.723887,2.012485,-17.986706,-1.343999
2.540000,0.646961,-0.587749,1.478709,-0.156511,0.981270,0.011729,-1.135665,1.009495,-0.198436,3.273810,0.406462,0.708278,2.240137,-17.748788,-1.773439
2.550000,0.645340,-0.577886,1.478816,-0.167703,0.991382,0.009779,-1.102811,1.012677,-0.191448,3.297381,0.230338,0.688511,2.475145,-17.469411,-2.175196
2.560000,0.643608,-0.567921,1.478905,-0.178566,1.001518,0.007899,-1.069709,1.014111,-0.184683,3.323328,0.057135,0.664435,2.714854,-17.149072,-2.536843
2.570000,0.641770,-0.557855,1.478975,-0.189097,1.011659,0.006085,-1.036336,1.013831,-0.178171,3.351684,-0.112600,0.637380,2.956576,-16.791998,-2.869311
2.580000,0.639828,-0.547688,1.479027,-0.199292,1.021789,0.004335,-1.002667,1.011871,-0.171946,3.382457,-0.278591,0.607146,3.197642,-16.400661,-3.172525
2.590000,0.637785,-0.537420,1.479062,-0.209149,1.031891,0.002645,-0.968679,1.008272,-0.166038,3.415626,-0.440507,0.574027,3.435379,-15.977528,-3.446410
2.600000,0.635646,-0.527050,1.479080,-0.218664,1.041949,0.001013,-0.934347,1.003076,-0.160474,3.451145,-0.598043,0.538316,3.667114,-15.525071,-3.690892
2.610000,0.633413,-0.516581,1.479082,-0.227835,1.051947,-0.000566,-0.899647,0.996327,-0.155282,3.489051,-0.750879,0.500010,3.887366,-15.046779,-3.898373
2.620000,0.631090,-0.506012,1.479069,-0.236656,1.061871,-0.002094,-0.864559,0.988075,-0.150480,3.528981,-0.898852,0.460108,4.096616,-14.543977,-4.077223
2.630000,0.628681,-0.495344,1.479040,-0.245125,1.071704,-0.003576,-0.829061,0.978368,-0.146086,3.570939,-1.041684,0.418558,4.292539,-14.019011,-4.228287
2.640000,0.626189,-0.484578,1.478997,-0.253236,1.081433,-0.005017,-0.793134,0.967259,-0.142114,3.614779,-1.179166,0.375633,4.472804,-13.474225,-4.352411
2.650000,0.623617,-0.473716,1.478940,-0.260986,1.091045,-0.006420,-0.756760,0.954803,-0.138577,3.660335,-1.311110,0.331597,4.635086,-12.911965,-4.450443
2.660000,0.620970,-0.462758,1.478869,-0.268370,1.100525,-0.007790,-0.719920,0.941057,-0.135486,3.707617,-1.437253,0.286572,4.771908,-12.337135,-4.519792
2.670000,0.618251,-0.451706,1.478784,-0.275383,1.109862,-0.009131,-0.682603,0.926077,-0.132847,3.755929,-1.557695,0.241128,4.886721,-11.749208,-4.565162
2.680000,0.615464,-0.440561,1.478686,-0.282020,1.119043,-0.010449,-0.644798,0.909923,-0.130665,3.805273,-1.672201,0.195344,4.977826,-11.150215,-4.587819
2.690000,0.612612,-0.429325,1.478575,-0.288277,1.128056,-0.011746,-0.606495,0.892653,-0.128941,3.855401,-1.780669,0.149443,5.043527,-10.542188,-4.589030
2.700000,0.609700,-0.418000,1.478452,-0.294148,1.136892,-0.013029,-0.567688,0.874330,-0.127676,3.906053,-1.883021,0.103631,5.082126,-9.927158,-4.570063
2.710000,0.606731,-0.406588,1.478315,-0.299629,1.145540,-0.014301,-0.528370,0.855015,-0.126867,3.957229,-1.979076,0.058109,5.084826,-9.310184,-4.532294
2.720000,0.603708,-0.395090,1.478166,-0.304714,1.153989,-0.015568,-0.488544,0.834769,-0.126512,4.007967,-2.069079,0.013049,5.057898,-8.689900,-4.476868
2.730000,0.600638,-0.383509,1.478004,-0.309398,1.162232,-0.016833,-0.448212,0.813654,-0.126604,4.058285,-2.152869,-0.031374,5.000515,-8.067967,-4.405036
2.740000,0.597522,-0.371846,1.477829,-0.313677,1.170260,-0.018101,-0.407381,0.791732,-0.127137,4.107873,-2.230438,-0.075001,4.911847,-7.446047,-4.318053
2.750000,0.594365,-0.360104,1.477641,-0.317544,1.178064,-0.019377,-0.366058,0.769066,-0.128101,4.156415,-2.301795,-0.117689,4.791067,-6.825800,-4.217172
2.760000,0.591172,-0.348286,1.477441,-0.320996,1.185639,-0.020665,-0.324253,0.745718,-0.129486,4.203939,-2.366836,-0.159208,4.628403,-6.212153,-4.106035
2.770000,0.587947,-0.336392,1.477228,-0.324028,1.192976,-0.021968,-0.281985,0.721749,-0.131281,4.249274,-2.425908,-0.199664,4.433065,-5.603101,-3.983214
2.780000,0.584693,-0.324427,1.477002,-0.326635,1.200072,-0.023292,-0.239275,0.697220,-0.133475,4.292492,-2.478917,-0.238837,4.205320,-4.999906,-3.849670
2.790000,0.581416,-0.312392,1.476762,-0.328812,1.206919,-0.024639,-0.196144,0.672191,-0.136053,4.333273,-2.525930,-0.276624,3.945436,-4.403829,-3.706364
2.800000,0.578118,-0.300289,1.476509,-0.330556,1.213514,-0.026014,-0.152618,0.646721,-0.139002,4.371295,-2.567022,-0.312935,3.653679,-3.816131,-3.554257
2.810000,0.574806,-0.288122,1.476242,-0.331863,1.219852,-0.027420,-0.108724,0.620871,-0.142305,4.406594,-2.602165,-0.347552,3.321410,-3.241081,-3.397641
2.820000,0.571483,-0.275893,1.475960,-0.332730,1.225930,-0.028861,-0.064498,0.594697,-0.145948,4.438020,-2.631744,-0.380714,2.958893,-2.676564,-3.233737
2.830000,0.568153,-0.263605,1.475664,-0.333152,1.231745,-0.030340,-0.019976,0.568255,-0.149914,4.465675,-2.655735,-0.412204,2.567486,-2.123473,-3.063099
2.840000,0.564821,-0.251259,1.475354,-0.333128,1.237295,-0.031861,0.024802,0.541601,-0.154186,4.489278,-2.674255,-0.441956,2.148546,-1.582700,-2.886280
2.850000,0.561492,-0.238860,1.475027,-0.332655,1.242577,-0.033425,0.069795,0.514788,-0.158747,4.508559,-2.687433,-0.469911,1.703430,-1.055138,-2.703832
2.860000,0.558169,-0.226409,1.474685,-0.331732,1.247590,-0.035036,0.114961,0.487870,-0.163577,4.523518,-2.695303,-0.495888,1.227079,-0.544254,-2.519520
2.870000,0.554859,-0.213909,1.474326,-0.330356,1.252334,-0.036697,0.160249,0.460898,-0.168659,4.533311,-2.698252,-0.520141,0.728054,-0.048051,-2.330293
2.880000,0.551564,-0.201363,1.473951,-0.328527,1.256808,-0.038410,0.205610,0.433922,-0.173973,4.538010,-2.696315,-0.542478,0.208498,0.432891,-2.136309
2.890000,0.548290,-0.188774,1.473558,-0.326244,1.261013,-0.040178,0.250992,0.406988,-0.179502,4.537420,-2.689647,-0.562852,-0.329445,0.897997,-1.937730
2.900000,0.545040,-0.176143,1.473147,-0.323507,1.264948,-0.042001,0.296340,0.380144,-0.185224,4.531367,-2.678409,-0.581218,-0.883631,1.346688,-1.734714
2.910000,0.541821,-0.163475,1.472718,-0.320317,1.268616,-0.043883,0.341601,0.353435,-0.191118,4.519769,-2.662679,-0.597454,-1.453640,1.776104,-1.529405
2.920000,0.538636,-0.150772,1.472269,-0.316675,1.272017,-0.045824,0.386716,0.326904,-0.197166,4.502332,-2.642843,-0.611703,-2.035394,2.188229,-1.319736
2.930000,0.535489,-0.138036,1.471801,-0.312584,1.275155,-0.047826,0.431628,0.300592,-0.203345,4.479029,-2.618973,-0.623834,-2.626539,2.582765,-1.105624
2.940000,0.532385,-0.125270,1.471312,-0.308044,1.278030,-0.049891,0.476277,0.274538,-0.209635,4.449778,-2.591247,-0.633801,-3.224722,2.959414,-0.886986
2.950000,0.529330,-0.112476,1.470803,-0.303059,1.280646,-0.052019,0.520604,0.248779,-0.216014,4.414519,-2.559846,-0.641558,-3.827588,3.317879,-0.663740
2.960000,0.526326,-0.099658,1.470272,-0.297633,1.283007,-0.054212,0.564550,0.223353,-0.222459,4.373439,-2.524928,-0.647014,-4.438356,3.657261,-0.436963
2.970000,0.523378,-0.086817,1.469718,-0.291770,1.285115,-0.056469,0.608052,0.198292,-0.228947,4.326003,-2.486736,-0.650229,-5.048415,3.977934,-0.205269
2.980000,0.520492,-0.073956,1.469142,-0.285474,1.286974,-0.058791,0.651049,0.173628,-0.235455,4.272483,-2.445432,-0.651102,-5.654731,4.279676,0.031567
2.990000,0.517670,-0.061078,1.468542,-0.278751,1.288589,-0.061178,0.693482,0.149393,-0.241961,4.212931,-2.401206,-0.649580,-6.254264,4.562261,0.273770
3.000000,0.514918,-0.048185,1.467918,-0.271606,1.289963,-0.063630,0.735288,0.125613,-0.248439,4.147431,-2.354251,-0.645608,-6.843980,4.825465,0.521567
3.010000,0.512240,-0.035280,1.467270,-0.264047,1.291103,-0.066146,0.776405,0.102318,-0.254866,4.075607,-2.304622,-0.639250,-7.408517,5.065524,0.778224
3.020000,0.509639,-0.022364,1.466595,-0.256080,1.292011,-0.068727,0.816782,0.079529,-0.261215,3.998758,-2.252848,-0.630160,-7.958672,5.286186,1.040552
3.030000,0.507119,-0.009440,1.465895,-0.247714,1.292695,-0.071370,0.856362,0.057268,-0.267460,3.916486,-2.198962,-0.618420,-8.492918,5.487659,1.308402
3.040000,0.504686,0.003489,1.465168,-0.238956,1.293159,-0.074076,0.895094,0.035556,-0.273574,3.828958,-2.143158,-0.603974,-9.009725,5.670154,1.581628
3.050000,0.502341,0.016422,1.464413,-0.229815,1.293408,-0.076841,0.932925,0.014410,-0.279531,3.736355,-2.085622,-0.586770,-9.507567,5.833878,1.860082
3.060000,0.500091,0.029357,1.463631,-0.220301,1.293449,-0.079666,0.969805,-0.006152,-0.285302,3.638861,-2.026546,-0.566865,-9.984563,5.979139,2.146373
3.070000,0.497937,0.042290,1.462820,-0.210422,1.293287,-0.082547,1.005686,-0.026116,-0.290858,3.536721,-1.966105,-0.543951,-10.439581,6.106034,2.437260
3.080000,0.495883,0.055222,1.461980,-0.200190,1.292928,-0.085482,1.040524,-0.045470,-0.296171,3.430148,-1.904486,-0.518106,-10.871138,6.214763,2.732256
3.090000,0.493934,0.068148,1.461110,-0.189615,1.292380,-0.088469,1.074275,-0.064202,-0.301210,3.319382,-1.841869,-0.489293,-11.277749,6.305521,3.030878
3.100000,0.492092,0.081069,1.460210,-0.178709,1.291646,-0.091505,1.106899,-0.082304,-0.305947,3.204681,-1.778435,-0.457478,-11.657930,6.378505,3.332640
3.110000,0.490361,0.093981,1.459280,-0.167481,1.290736,-0.094587,1.138359,-0.099768,-0.310351,3.086544,-1.714254,-0.422707,-12.015965,6.431282,3.638968
3.120000,0.488744,0.106883,1.458318,-0.155945,1.289653,-0.097711,1.168618,-0.116588,-0.314391,2.964719,-1.649748,-0.384778,-12.343895,6.467001,3.947233
3.130000,0.487243,0.119773,1.457325,-0.144113,1.288406,-0.100873,1.197643,-0.132762,-0.318036,2.839774,-1.584969,-0.343759,-12.639529,6.486182,4.256713
3.140000,0.485862,0.132650,1.456301,-0.131997,1.287000,-0.104070,1.225404,-0.148287,-0.321256,2.712044,-1.520078,-0.299642,-12.900678,6.489344,4.566691
3.150000,0.484604,0.145513,1.455244,-0.119609,1.285442,-0.107297,1.251876,-0.163163,-0.324018,2.581883,-1.455234,-0.252426,-13.125151,6.477007,4.876447
3.160000,0.483471,0.158359,1.454154,-0.106963,1.283739,-0.110549,1.277024,-0.177393,-0.326297,2.448614,-1.390638,-0.202417,-13.284090,6.450962,5.192853
3.170000,0.482466,0.171187,1.453033,-0.094073,1.281897,-0.113821,1.300844,-0.190977,-0.328056,2.315137,-1.326320,-0.148916,-13.405238,6.410299,5.506669
3.180000,0.481590,0.183996,1.451878,-0.080951,1.279922,-0.117108,1.323323,-0.203921,-0.329265,2.180632,-1.262480,-0.092297,-13.489668,6.355383,5.816246
3.190000,0.480847,0.196785,1.450690,-0.067611,1.277820,-0.120405,1.344454,-0.216229,-0.329892,2.045462,-1.199259,-0.032611,-13.538455,6.286576,6.119935
3.200000,0.480239,0.209552,1.449470,-0.054066,1.275599,-0.123704,1.364231,-0.227909,-0.329907,1.909978,-1.136793,0.030076,-13.552674,6.204242,6.416088
3.210000,0.479767,0.222297,1.448216,-0.040331,1.273264,-0.127001,1.382656,-0.238967,-0.329281,1.774709,-1.075137,0.095681,-13.538172,6.106720,6.703046
3.220000,0.479433,0.235017,1.446930,-0.026418,1.270822,-0.130287,1.399727,-0.249415,-0.327984,1.639538,-1.014610,0.164102,-13.490668,5.996645,6.979171
3.230000,0.479239,0.247713,1.445611,-0.012341,1.268278,-0.133558,1.415449,-0.259263,-0.325990,1.505004,-0.955244,0.235223,-13.410650,5.874629,7.242815
3.240000,0.479186,0.260382,1.444259,0.001887,1.265639,-0.136805,1.429830,-0.268524,-0.323271,1.371431,-0.897156,0.308911,-13.298610,5.741283,7.492332
3.250000,0.479277,0.273025,1.442875,0.016251,1.262909,-0.140021,1.442882,-0.277211,-0.319803,1.239137,-0.840454,0.385017,-13.155038,5.597218,7.726072
3.260000,0.479512,0.285640,1.441459,0.030740,1.260096,-0.143198,1.454617,-0.285337,-0.315563,1.108371,-0.785125,0.463436,-12.978821,5.440013,7.940834
3.270000,0.479892,0.298227,1.440011,0.045339,1.257204,-0.146329,1.465055,-0.292919,-0.310528,0.979590,-0.731549,0.543840,-12.772248,5.273682,8.136715
3.280000,0.480419,0.310784,1.438532,0.060037,1.254240,-0.149406,1.474216,-0.299973,-0.304680,0.853025,-0.679678,0.626102,-12.536008,5.099209,8.312258
3.290000,0.481093,0.323311,1.437023,0.074819,1.251207,-0.152420,1.482124,-0.306518,-0.298000,0.728967,-0.629589,0.710012,-12.270786,4.917577,8.466005
3.300000,0.481916,0.335808,1.435484,0.089675,1.248111,-0.155363,1.488805,-0.312571,-0.290475,0.607703,-0.581347,0.795345,-11.977270,4.729767,8.596500
3.310000,0.482887,0.348273,1.433916,0.104592,1.244957,-0.158227,1.494282,-0.318153,-0.282089,0.488919,-0.535173,0.881891,-11.641144,4.540862,8.701506
3.320000,0.484008,0.360707,1.432320,0.119557,1.241749,-0.161002,1.498595,-0.323281,-0.272834,0.374294,-0.490729,0.969323,-11.279935,4.347242,8.780440
3.330000,0.485278,0.373108,1.430696,0.134560,1.238493,-0.163681,1.501780,-0.327974,-0.262701,0.263396,-0.448242,1.057408,-10.896166,4.149389,8.831939
3.340000,0.486699,0.385477,1.429046,0.149589,1.235191,-0.166253,1.503876,-0.332253,-0.251684,0.156438,-0.407754,1.145866,-10.492360,3.947784,8.854643
3.350000,0.488270,0.397812,1.427372,0.164634,1.231849,-0.168711,1.504923,-0.336136,-0.239783,0.053607,-0.369298,1.234400,-10.071041,3.742907,8.847190
3.360000,0.489992,0.410114,1.425673,0.179684,1.228470,-0.171046,1.504964,-0.339645,-0.226994,-0.044781,-0.332820,1.322989,-9.638574,3.533109,8.801026
3.370000,0.491864,0.422381,1.423951,0.194730,1.225057,-0.173248,1.504042,-0.342800,-0.213325,-0.138950,-0.298547,1.410635,-9.193170,3.321260,8.722861
3.380000,0.493886,0.434615,1.422208,0.209762,1.221615,-0.175310,1.502200,-0.345623,-0.198784,-0.228608,-0.266399,1.497338,-8.736885,3.108105,8.612213
3.390000,0.496059,0.446813,1.420445,0.224771,1.218146,-0.177221,1.499485,-0.348135,-0.183383,-0.313658,-0.236387,1.582770,-8.271770,2.894383,8.468601
3.400000,0.498381,0.458977,1.418664,0.239749,1.214653,-0.178975,1.495943,-0.350357,-0.167134,-0.394021,-0.208511,1.666598,-7.799880,2.680837,8.291544
3.410000,0.500854,0.471106,1.416866,0.254687,1.211140,-0.180561,1.491620,-0.352313,-0.150054,-0.469676,-0.182820,1.748772,-7.322367,2.469540,8.073381
3.420000,0.503475,0.483200,1.415054,0.269579,1.207608,-0.181973,1.486565,-0.354021,-0.132167,-0.540500,-0.159175,1.828275,-6.842296,2.259739,7.821689
3.430000,0.506245,0.495259,1.413228,0.284416,1.204060,-0.183202,1.480826,-0.355503,-0.113498,-0.606520,-0.137618,1.905095,-6.361830,2.052013,7.536865
3.440000,0.509163,0.507281,1.411390,0.299193,1.200498,-0.184240,1.474451,-0.356780,-0.094075,-0.667743,-0.118126,1.978903,-5.883134,1.846939,7.219307
3.450000,0.512229,0.519268,1.409543,0.313903,1.196925,-0.185081,1.467487,-0.357872,-0.073931,-0.724196,-0.100669,2.049373,-5.408371,1.645098,6.869413
3.460000,0.515441,0.531220,1.407689,0.328541,1.193341,-0.185717,1.459984,-0.358801,-0.053096,-0.775807,-0.085258,2.116490,-4.942826,1.448249,6.479880
3.470000,0.518799,0.543135,1.405830,0.343101,1.189749,-0.186141,1.451986,-0.359584,-0.031614,-0.822939,-0.071742,2.179213,-4.485159,1.255645,6.059748
3.480000,0.522303,0.555015,1.403967,0.357579,1.186150,-0.186347,1.443540,-0.360242,-0.009527,-0.865542,-0.060130,2.237587,-4.037152,1.067718,5.610359
3.490000,0.525950,0.566858,1.402104,0.371971,1.182545,-0.186330,1.434690,-0.360793,0.013122,-0.903721,-0.050371,2.291327,-3.600587,0.884903,5.133052
3.500000,0.529742,0.578666,1.400241,0.386272,1.178935,-0.186083,1.425480,-0.361255,0.036284,-0.937598,-0.042413,2.340160,-3.177245,0.707633,4.629170
3.510000,0.533676,0.590437,1.398383,0.400479,1.175320,-0.185602,1.415954,-0.361647,0.059911,-0.967110,-0.036254,2.384082,-2.774096,0.537742,4.093596
3.520000,0.537751,0.602172,1.396530,0.414590,1.171702,-0.184883,1.406151,-0.361986,0.083947,-0.992902,-0.031700,2.422243,-2.387098,0.374093,3.534918
3.530000,0.541967,0.613871,1.394686,0.428602,1.168080,-0.183922,1.396109,-0.362287,0.108337,-1.014910,-0.028750,2.454710,-2.017397,0.216947,2.955266
3.540000,0.546323,0.625534,1.392852,0.442512,1.164456,-0.182716,1.385865,-0.362566,0.133022,-1.033312,-0.027338,2.481285,-1.666140,0.066565,2.356772
3.550000,0.550817,0.637160,1.391032,0.456318,1.160829,-0.181261,1.375454,-0.362839,0.157942,-1.048298,-0.027396,2.501790,-1.334471,-0.076790,1.741566
3.560000,0.555449,0.648750,1.389228,0.470020,1.157199,-0.179556,1.364911,-0.363119,0.183038,-1.059962,-0.028920,2.516219,-1.026277,-0.211084,1.107958
3.570000,0.560217,0.660304,1.387442,0.483616,1.153567,-0.177600,1.354265,-0.363421,0.208245,-1.068773,-0.031672,2.524080,-0.739630,-0.338044,0.462368
3.580000,0.565121,0.671822,1.385677,0.497105,1.149931,-0.175391,1.343545,-0.363757,0.233498,-1.074829,-0.035656,2.525435,-0.475339,-0.457625,-0.192604
3.590000,0.570159,0.683303,1.383935,0.510487,1.146291,-0.172930,1.332777,-0.364138,0.258732,-1.078357,-0.040800,2.520205,-0.234216,-0.569782,-0.854358
3.600000,0.575330,0.694747,1.382219,0.523761,1.142648,-0.170217,1.321985,-0.364577,0.283880,-1.079593,-0.047027,2.508334,-0.017071,-0.674470,-1.520295
3.610000,0.580634,0.706156,1.380532,0.536926,1.139000,-0.167253,1.311201,-0.365082,0.308877,-1.077926,-0.054258,2.489845,0.153695,-0.771791,-2.189101
3.620000,0.586068,0.717527,1.378875,0.549984,1.135346,-0.164040,1.300432,-0.365665,0.333655,-1.075632,-0.062431,2.464614,0.301505,-0.861534,-2.856735
3.630000,0.591633,0.728863,1.377252,0.562935,1.131686,-0.160581,1.289693,-0.366334,0.358147,-1.071966,-0.071463,2.432723,0.428191,-0.943638,-3.520439
3.640000,0.597327,0.740161,1.375664,0.575778,1.128019,-0.156878,1.278996,-0.367097,0.382287,-1.067132,-0.081278,2.394227,0.535587,-1.018038,-4.177458
3.650000,0.603148,0.751423,1.374115,0.588515,1.124344,-0.152937,1.268354,-0.367961,0.406010,-1.061313,-0.091798,2.349206,0.625526,-1.084672,-4.825035
3.660000,0.609097,0.762648,1.372606,0.601146,1.120659,-0.148760,1.257764,-0.368936,0.429248,-1.055537,-0.103080,2.297613,0.721647,-1.140089,-5.456536
3.670000,0.615171,0.773836,1.371140,0.613671,1.116965,-0.144353,1.247246,-0.370025,0.451941,-1.047908,-0.114726,2.239950,0.801305,-1.188028,-6.073557
3.680000,0.621370,0.784987,1.369720,0.626091,1.113259,-0.139723,1.236808,-0.371232,0.474027,-1.039569,-0.126816,2.176198,0.863664,-1.228841,-6.673815
3.690000,0.627692,0.796101,1.368347,0.638407,1.109540,-0.134875,1.226456,-0.372562,0.495445,-1.030696,-0.139281,2.106537,0.907886,-1.262880,-7.255030
3.700000,0.634137,0.807178,1.367023,0.650621,1.105807,-0.129817,1.216195,-0.374019,0.516139,-1.021474,-0.152053,2.031169,0.933133,-1.290495,-7.814919
3.710000,0.640704,0.818217,1.365751,0.662731,1.102059,-0.124555,1.206035,-0.375604,0.536048,-1.011412,-0.165039,1.950122,0.921209,-1.312819,-8.346254
3.720000,0.647392,0.829219,1.364533,0.674741,1.098294,-0.119098,1.195966,-0.377320,0.555124,-1.002337,-0.178255,1.864107,0.890761,-1.329328,-8.852305
3.730000,0.654199,0.840183,1.363370,0.686651,1.094512,-0.113455,1.185987,-0.379169,0.573314,-0.993654,-0.191607,1.773165,0.843077,-1.340278,-9.331398
3.740000,0.661124,0.851109,1.362264,0.698461,1.090711,-0.107635,1.176091,-0.381153,0.590572,-0.985529,-0.205043,1.677575,0.779445,-1.345926,-9.781855
3.750000,0.668168,0.861997,1.361218,0.710173,1.086889,-0.101647,1.166274,-0.383270,0.606851,-0.978114,-0.218509,1.577629,0.701153,-1.346527,-10.202000
3.760000,0.675328,0.872847,1.360232,0.721787,1.083045,-0.095501,1.156532,-0.385522,0.622108,-0.970964,-0.231910,1.473390,0.594678,-1.343522,-10.583808
3.770000,0.682603,0.883658,1.359308,0.733304,1.079178,-0.089208,1.146851,-0.387908,0.636307,-0.965593,-0.245311,1.365779,0.477934,-1.335838,-10.932729
3.780000,0.689993,0.894430,1.358448,0.744724,1.075286,-0.082779,1.137217,-0.390428,0.649412,-0.961429,-0.258612,1.254848,0.354021,-1.323586,-11.247867
3.790000,0.697497,0.905164,1.357653,0.756048,1.071369,-0.076224,1.127618,-0.393080,0.661394,-0.958526,-0.271768,1.140938,0.226042,-1.306876,-11.528321
3.800000,0.705114,0.915858,1.356924,0.767277,1.067424,-0.069555,1.118042,-0.395863,0.672222,-0.956911,-0.284735,1.024400,0.097099,-1.285821,-11.773195
3.810000,0.712842,0.926512,1.356262,0.778409,1.063451,-0.062783,1.108463,-0.398775,0.681871,-0.957714,-0.297560,0.905280,-0.001008,-1.258251,-11.973622
3.820000,0.720682,0.937127,1.355669,0.789446,1.059448,-0.055921,1.098884,-0.401813,0.690322,-0.958207,-0.309989,0.784693,-0.097390,-1.226836,-12.137646
3.830000,0.728631,0.947701,1.355144,0.800387,1.055414,-0.048981,1.089296,-0.404974,0.697560,-0.959657,-0.322086,0.662648,-0.192459,-1.191966,-12.265345
3.840000,0.736689,0.958235,1.354689,0.811232,1.051348,-0.041974,1.079688,-0.408254,0.703571,-0.962053,-0.333818,0.539507,-0.286628,-1.154032,-12.356796
3.850000,0.744855,0.968728,1.354305,0.821981,1.047249,-0.034914,1.070051,-0.411649,0.708347,-0.965388,-0.345157,0.415633,-0.380309,-1.113425,-12.412076
3.860000,0.753129,0.979180,1.353991,0.832633,1.043115,-0.027811,1.060382,-0.415155,0.711880,-0.969178,-0.356009,0.291183,-0.486054,-1.072311,-12.426127
3.870000,0.761508,0.989590,1.353749,0.843188,1.038945,-0.020680,1.050664,-0.418768,0.714171,-0.974563,-0.366517,0.166999,-0.590649,-1.029085,-12.404790
3.880000,0.769992,0.999958,1.353577,0.853646,1.034739,-0.013532,1.040887,-0.422483,0.715222,-0.980984,-0.376584,0.043202,-0.693021,-0.983922,-12.348771
3.890000,0.778580,1.010285,1.353478,0.864006,1.030495,-0.006380,1.031041,-0.426298,0.715038,-0.988413,-0.386190,-0.079863,-0.792095,-0.936993,-12.258777
3.900000,0.787272,1.020568,1.353450,0.874266,1.026213,0.000765,1.021116,-0.430206,0.713628,-0.996811,-0.395318,-0.201862,-0.886797,-0.888470,-12.135515
3.910000,0.796065,1.030809,1.353493,0.884428,1.021891,0.007889,1.011099,-0.434202,0.711003,-1.006414,-0.403951,-0.322637,-0.968898,-0.838612,-11.975352
3.920000,0.804960,1.041006,1.353607,0.894488,1.017529,0.014981,1.000985,-0.438283,0.707181,-1.016490,-0.412083,-0.441459,-1.045355,-0.787495,-11.783863
3.930000,0.813955,1.051159,1.353793,0.904447,1.013125,0.022029,0.990767,-0.442442,0.702181,-1.027301,-0.419697,-0.558214,-1.115970,-0.735283,-11.562286
3.940000,0.823049,1.061268,1.354048,0.914303,1.008680,0.029020,0.980437,-0.446675,0.696025,-1.038789,-0.426785,-0.672608,-1.180545,-0.682137,-11.311857
3.950000,0.832240,1.071333,1.354373,0.924055,1.004191,0.035945,0.969989,-0.450976,0.688738,-1.050891,-0.433337,-0.784359,-1.238882,-0.628221,-11.033816
3.960000,0.841529,1.081352,1.354767,0.933703,0.999660,0.042792,0.959416,-0.455340,0.680346,-1.063671,-0.439335,-0.893298,-1.287614,-0.574021,-10.726827
3.970000,0.850914,1.091326,1.355228,0.943243,0.995084,0.049549,0.948714,-0.459761,0.670882,-1.076764,-0.444802,-0.998928,-1.330101,-0.519334,-10.395015
3.980000,0.860394,1.101253,1.355757,0.952676,0.990464,0.056206,0.937879,-0.464234,0.660379,-1.090253,-0.449720,-1.101121,-1.366531,-0.464285,-10.039930
3.990000,0.869967,1.111135,1.356352,0.962000,0.985799,0.062753,0.926908,-0.468754,0.648872,-1.104075,-0.454087,-1.199654,-1.397095,-0.408994,-9.663124
4.000000,0.879633,1.120969,1.357012,0.971214,0.981089,0.069180,0.915797,-0.473314,0.636399,-1.118175,-0.457900,-1.294316,-1.421982,-0.353584,-9.266151
4.010000,0.889391,1.130756,1.357735,0.980316,0.976333,0.075478,0.904543,-0.477910,0.622999,-1.132581,-0.461147,-1.384956,-1.439245,-0.298468,-8.849519
4.020000,0.899239,1.140496,1.358521,0.989304,0.971531,0.081637,0.893145,-0.482535,0.608714,-1.147039,-0.463856,-1.471297,-1.451474,-0.243444,-8.415950
4.030000,0.909177,1.150187,1.359367,0.998178,0.966682,0.087649,0.881602,-0.487185,0.593588,-1.161596,-0.466016,-1.553224,-1.459119,-0.188597,-7.967125
4.040000,0.919203,1.159829,1.360273,1.006936,0.961787,0.093506,0.869913,-0.491854,0.577665,-1.176208,-0.467629,-1.630594,-1.462633,-0.134015,-7.504722
4.050000,0.929315,1.169422,1.361237,1.015576,0.956845,0.099200,0.858077,-0.496536,0.560991,-1.190836,-0.468698,-1.703279,-1.462467,-0.079785,-7.030423
4.060000,0.939514,1.178966,1.362257,1.024097,0.951856,0.104724,0.846096,-0.501226,0.543615,-1.205471,-0.469220,-1.771157,-1.458458,-0.026164,-6.546190
4.070000,0.949797,1.188459,1.363331,1.032498,0.946821,0.110070,0.833968,-0.505918,0.525585,-1.220024,-0.469215,-1.834161,-1.451747,0.026952,-6.053384
4.080000,0.960163,1.197902,1.364458,1.040776,0.941738,0.115233,0.821695,-0.510608,0.506949,-1.234498,-0.468682,-1.892202,-1.442862,0.079497,-5.553650
4.090000,0.970612,1.207294,1.365635,1.048931,0.936608,0.120207,0.809278,-0.515290,0.487757,-1.248875,-0.467627,-1.945217,-1.432331,0.131404,-5.048634
4.100000,0.981141,1.216634,1.366861,1.056961,0.931432,0.124987,0.796718,-0.519959,0.468061,-1.263141,-0.466057,-1.993162,-1.420679,0.182608,-4.539979
4.110000,0.991751,1.225923,1.368134,1.064865,0.926209,0.129567,0.784016,-0.524610,0.447912,-1.277252,-0.463974,-2.035956,-1.409306,0.232958,-4.030696
4.120000,1.002438,1.235158,1.369452,1.072641,0.920940,0.133944,0.771174,-0.529237,0.427359,-1.291288,-0.461396,-2.073713,-1.397759,0.282482,-3.520897
4.130000,1.013203,1.244341,1.370812,1.080288,0.915625,0.138113,0.758191,-0.533836,0.406454,-1.305208,-0.458328,-2.106377,-1.386461,0.331125,-3.012061
4.140000,1.024044,1.253471,1.372213,1.087804,0.910264,0.142072,0.745070,-0.538402,0.385248,-1.319019,-0.454777,-2.133963,-1.375829,0.378832,-2.505664
4.150000,1.034959,1.262546,1.373653,1.095189,0.904857,0.145817,0.731811,-0.542930,0.363792,-1.332729,-0.450754,-2.156503,-1.366286,0.425547,-2.003185
4.160000,1.045947,1.271568,1.375129,1.102440,0.899405,0.149347,0.718416,-0.547415,0.342136,-1.346284,-0.446265,-2.173959,-1.359904,0.471104,-1.508265
4.170000,1.057007,1.280534,1.376639,1.109557,0.893909,0.152659,0.704885,-0.551854,0.320329,-1.359859,-0.441331,-2.186594,-1.355248,0.515571,-1.019954
4.180000,1.068138,1.289446,1.378181,1.116537,0.888368,0.155753,0.691219,-0.556241,0.298420,-1.373396,-0.435958,-2.194384,-1.352536,0.558906,-0.539464
4.190000,1.079337,1.298301,1.379753,1.123381,0.882784,0.158627,0.677418,-0.560572,0.276457,-1.386917,-0.430157,-2.197413,-1.351984,0.601068,-0.068008
4.200000,1.090605,1.307101,1.381353,1.130085,0.877157,0.161282,0.663481,-0.564842,0.254487,-1.400444,-0.423940,-2.195778,-1.353812,0.642012,0.393201
4.210000,1.101939,1.315844,1.382978,1.136650,0.871487,0.163717,0.649409,-0.569049,0.232558,-1.413929,-0.417317,-2.189481,-1.360067,0.681613,0.840267
4.220000,1.113337,1.324531,1.384627,1.143073,0.865776,0.165934,0.635202,-0.573187,0.210713,-1.427572,-0.410308,-2.178894,-1.368912,0.719923,1.274989
4.230000,1.124800,1.333160,1.386296,1.149353,0.860024,0.167932,0.620858,-0.577254,0.188994,-1.441316,-0.402923,-2.164026,-1.380342,0.756911,1.696482
4.240000,1.136324,1.341731,1.387985,1.155490,0.854231,0.169714,0.606375,-0.581245,0.167446,-1.455187,-0.395175,-2.145012,-1.394348,0.792547,2.103862
4.250000,1.147909,1.350244,1.389690,1.161480,0.848399,0.171282,0.591753,-0.585156,0.146108,-1.469211,-0.387077,-2.121998,-1.410926,0.826797,2.496244
4.260000,1.159553,1.358699,1.391410,1.167324,0.842528,0.172637,0.576991,-0.588985,0.125020,-1.483351,-0.378640,-2.095025,-1.431657,0.859532,2.869835
4.270000,1.171255,1.367095,1.393142,1.173020,0.836620,0.173783,0.562086,-0.592728,0.104219,-1.497782,-0.369887,-2.064526,-1.454752,0.890831,3.227015
4.280000,1.183013,1.375431,1.394885,1.178565,0.830674,0.174722,0.547035,-0.596382,0.083741,-1.512454,-0.360828,-2.030541,-1.480010,0.920675,3.567258
4.290000,1.194826,1.383708,1.396636,1.183960,0.824693,0.175459,0.531836,-0.599943,0.063619,-1.527388,-0.351478,-1.993240,-1.507230,0.949043,3.890034
4.300000,1.206692,1.391925,1.398393,1.189202,0.818676,0.175996,0.516486,-0.603410,0.043887,-1.542604,-0.341852,-1.952800,-1.536211,0.975917,4.194817
4.310000,1.218609,1.400082,1.400155,1.194289,0.812625,0.176338,0.500983,-0.606780,0.024575,-1.558076,-0.331960,-1.909292,-1.567808,1.001159,4.478221
4.320000,1.230577,1.408177,1.401919,1.199221,0.806540,0.176489,0.485323,-0.610049,0.005710,-1.573917,-0.321829,-1.863171,-1.600635,1.024881,4.742924
4.330000,1.242593,1.416212,1.403684,1.203995,0.800424,0.176454,0.469504,-0.613215,-0.012680,-1.590092,-0.311468,-1.814496,-1.634362,1.047079,4.988749
4.340000,1.254656,1.424186,1.405448,1.208610,0.794276,0.176237,0.453520,-0.616277,-0.030572,-1.606606,-0.300892,-1.763459,-1.668661,1.067748,5.215516
4.350000,1.266765,1.432098,1.407208,1.213065,0.788099,0.175844,0.437370,-0.619233,-0.047942,-1.623466,-0.290118,-1.710250,-1.703200,1.086883,5.423048
4.360000,1.278917,1.439948,1.408964,1.217357,0.781892,0.175280,0.421050,-0.622079,-0.064769,-1.640655,-0.279154,-1.654962,-1.738044,1.104349,5.608609
4.370000,1.291111,1.447735,1.410713,1.221485,0.775658,0.174551,0.404556,-0.624815,-0.081036,-1.658207,-0.268030,-1.598028,-1.772421,1.120286,5.774891
4.380000,1.303346,1.455461,1.412455,1.225448,0.769396,0.173661,0.387885,-0.627439,-0.096725,-1.676100,-0.256754,-1.539528,-1.805953,1.134705,5.922029
4.390000,1.315620,1.463123,1.414186,1.229242,0.763109,0.172618,0.371033,-0.629950,-0.111822,-1.694322,-0.245341,-1.479651,-1.838260,1.147618,6.050157
4.400000,1.327930,1.470723,1.415906,1.232868,0.756798,0.171427,0.353997,-0.632346,-0.126314,-1.712860,-0.233806,-1.418587,-1.868964,1.159035,6.159410
4.410000,1.340277,1.478259,1.417614,1.236322,0.750463,0.170094,0.336775,-0.634625,-0.140189,-1.731704,-0.222160,-1.356443,-1.897450,1.168842,6.247849
4.420000,1.352656,1.485732,1.419308,1.239603,0.744106,0.168625,0.319362,-0.636788,-0.153440,-1.750812,-0.210429,-1.293599,-1.923607,1.177190,6.317938
4.430000,1.365068,1.493141,1.420986,1.242708,0.737727,0.167027,0.301758,-0.638834,-0.166059,-1.770168,-0.198621,-1.230144,-1.947084,1.184105,6.370063
4.440000,1.377510,1.500486,1.422648,1.245637,0.731329,0.165306,0.283958,-0.640761,-0.178041,-1.789743,-0.186751,-1.166256,-1.967531,1.189614,6.404614
4.450000,1.389980,1.507768,1.424292,1.248387,0.724912,0.163468,0.265962,-0.642569,-0.189383,-1.809507,-0.174833,-1.102109,-1.984601,1.193742,6.421978
4.460000,1.402477,1.514985,1.425917,1.250956,0.718478,0.161521,0.247767,-0.644257,-0.200083,-1.829452,-0.162877,-1.037814,-1.997216,1.196412,6.421062
4.470000,1.414999,1.522137,1.427522,1.253341,0.712028,0.159469,0.229373,-0.645826,-0.210140,-1.849471,-0.150905,-0.973676,-2.005842,1.197767,6.403918
4.480000,1.427543,1.529225,1.429106,1.255542,0.705562,0.157320,0.210778,-0.647275,-0.219557,-1.869554,-0.138926,-0.909788,-2.010221,1.197846,6.371118
4.490000,1.440109,1.536248,1.430668,1.257556,0.699083,0.155080,0.191982,-0.648605,-0.228337,-1.889660,-0.126952,-0.846304,-2.010092,1.196688,6.323232
4.500000,1.452694,1.543207,1.432207,1.259381,0.692590,0.152755,0.172985,-0.649814,-0.236485,-1.909740,-0.114996,-0.783372,-2.005194,1.194332,6.260829
4.510000,1.465296,1.550100,1.433723,1.261015,0.686087,0.150352,0.153787,-0.650905,-0.244006,-1.929787,-0.103067,-0.721099,-1.994251,1.190746,6.183608
4.520000,1.477913,1.556928,1.435214,1.262456,0.679573,0.147877,0.134389,-0.651876,-0.250910,-1.949654,-0.091182,-0.659705,-1.978143,1.186049,6.093117
4.530000,1.490544,1.563692,1.436680,1.263703,0.673050,0.145336,0.114794,-0.652728,-0.257204,-1.969332,-0.079349,-0.599279,-1.956735,1.180288,5.990036
4.540000,1.503187,1.570389,1.438121,1.264752,0.666519,0.142735,0.095003,-0.653463,-0.262899,-1.988770,-0.067579,-0.539944,-1.929890,1.173512,5.875040
4.550000,1.515839,1.577022,1.439535,1.265602,0.659981,0.140080,0.075020,-0.654080,-0.268007,-2.007912,-0.055882,-0.481815,-1.897474,1.165768,5.748808
4.560000,1.528498,1.583589,1.440922,1.266251,0.653437,0.137377,0.054846,-0.654581,-0.272539,-2.026744,-0.044266,-0.424990,-1.858250,1.157087,5.611702
4.570000,1.541163,1.590091,1.442282,1.266698,0.646890,0.134631,0.034486,-0.654966,-0.276511,-2.045107,-0.032742,-0.369600,-1.813318,1.147535,5.464753
4.580000,1.553831,1.596527,1.443615,1.266941,0.640338,0.131848,0.013945,-0.655236,-0.279937,-2.062991,-0.021318,-0.315726,-1.762675,1.137164,5.308674
4.590000,1.566501,1.602897,1.444919,1.266977,0.633785,0.129034,-0.006772,-0.655393,-0.282831,-2.080341,-0.010002,-0.263455,-1.706320,1.126023,5.144182
4.600000,1.579170,1.609203,1.446195,1.266805,0.627231,0.126194,-0.027660,-0.655437,-0.285211,-2.097099,0.001200,-0.212868,-1.644253,1.114163,4.971993
4.610000,1.591837,1.615442,1.447443,1.266423,0.620677,0.123332,-0.048712,-0.655369,-0.287094,-2.113246,0.012279,-0.164044,-1.575487,1.101631,4.792971
4.620000,1.604498,1.621616,1.448662,1.265830,0.614124,0.120453,-0.069922,-0.655191,-0.288498,-2.128634,0.023230,-0.117036,-1.501126,1.088480,4.607663
4.630000,1.617152,1.627725,1.449852,1.265024,0.607573,0.117563,-0.091282,-0.654905,-0.289441,-2.143250,0.034047,-0.071909,-1.421291,1.074760,4.416768
4.640000,1.629798,1.633768,1.451013,1.264004,0.601026,0.114666,-0.112784,-0.654511,-0.289943,-2.157042,0.044724,-0.028717,-1.336099,1.060522,4.220982
4.650000,1.642432,1.639745,1.452145,1.262768,0.594483,0.111766,-0.134420,-0.654011,-0.290022,-2.169955,0.055256,0.012496,-1.245671,1.045816,4.021003
4.660000,1.655052,1.645657,1.453248,1.261315,0.587946,0.108867,-0.156181,-0.653406,-0.289700,-2.181968,0.065638,0.051672,-1.149382,1.030720,3.818013
4.670000,1.667657,1.651504,1.454323,1.259644,0.581416,0.105973,-0.178056,-0.652699,-0.288996,-2.192959,0.075868,0.088825,-1.048186,1.015253,3.612164
4.680000,1.680245,1.657286,1.455368,1.257753,0.574893,0.103088,-0.200036,-0.651889,-0.287930,-2.202916,0.085942,0.123908,-0.942293,0.999464,3.404094
4.690000,1.692812,1.663002,1.456384,1.255643,0.568378,0.100216,-0.222111,-0.650980,-0.286524,-2.211790,0.095856,0.156902,-0.831915,0.983398,3.194441
4.700000,1.705357,1.668653,1.457372,1.253311,0.561873,0.097359,-0.244268,-0.649973,-0.284799,-2.219540,0.105609,0.187794,-0.717260,0.967103,2.983841
4.710000,1.717877,1.674239,1.458332,1.250757,0.555379,0.094521,-0.266498,-0.648869,-0.282776,-2.226139,0.115195,0.216550,-0.598102,0.950689,2.773634
4.720000,1.730371,1.679761,1.459263,1.247981,0.548896,0.091704,-0.288787,-0.647670,-0.280475,-2.231509,0.124619,0.243236,-0.475142,0.934131,2.563669
4.730000,1.742836,1.685217,1.460166,1.244981,0.542426,0.088912,-0.311124,-0.646377,-0.277918,-2.235630,0.133878,0.267826,-0.348644,0.917471,2.354500
4.740000,1.755270,1.690609,1.461041,1.241758,0.535969,0.086147,-0.333496,-0.644993,-0.275126,-2.238471,0.142969,0.290330,-0.218874,0.900746,2.146677
4.750000,1.767670,1.695937,1.461889,1.238311,0.529526,0.083410,-0.355889,-0.643518,-0.272118,-2.239998,0.151892,0.310766,-0.086094,0.883997,1.940752
4.760000,1.780035,1.701200,1.462709,1.234640,0.523099,0.080705,-0.378291,-0.641955,-0.268918,-2.240187,0.160647,0.329121,0.049535,0.867311,1.738097
4.770000,1.792363,1.706399,1.463503,1.230745,0.516688,0.078032,-0.400688,-0.640306,-0.265543,-2.239004,0.169237,0.345501,0.187633,0.850673,1.538343
4.780000,1.804650,1.711534,1.464270,1.226627,0.510293,0.075394,-0.423066,-0.638571,-0.262014,-2.236428,0.177660,0.359899,0.327921,0.834117,1.341941
4.790000,1.816894,1.716605,1.465011,1.222284,0.503917,0.072793,-0.445412,-0.636753,-0.258351,-2.232439,0.185919,0.372352,0.470124,0.817675,1.149343
4.800000,1.829095,1.721612,1.465726,1.217719,0.497558,0.070228,-0.467710,-0.634853,-0.254573,-2.227020,0.194014,0.382900,0.613964,0.801382,0.961000
4.810000,1.841248,1.726556,1.466416,1.212930,0.491220,0.067701,-0.489947,-0.632873,-0.250700,-2.220147,0.201946,0.391553,0.758974,0.785316,0.778233
4.820000,1.853352,1.731437,1.467080,1.207920,0.484901,0.065214,-0.512109,-0.630815,-0.246748,-2.211828,0.209719,0.398443,0.905090,0.769459,0.600518
4.830000,1.865406,1.736254,1.467720,1.202688,0.478604,0.062767,-0.534179,-0.628679,-0.242737,-2.202043,0.217336,0.403582,1.052060,0.753840,0.428198
4.840000,1.877405,1.741009,1.468336,1.197237,0.472328,0.060360,-0.556145,-0.626469,-0.238682,-2.190785,0.224797,0.407026,1.199630,0.738486,0.261618
4.850000,1.889350,1.745701,1.468927,1.191566,0.466075,0.057993,-0.577990,-0.624184,-0.234602,-2.178049,0.232106,0.408834,1.347546,0.723425,0.101124
4.860000,1.901236,1.750330,1.469496,1.185677,0.459844,0.055668,-0.599700,-0.621827,-0.230511,-2.163817,0.239265,0.409035,1.495132,0.708719,-0.052053
4.870000,1.913062,1.754898,1.470041,1.179572,0.453638,0.053383,-0.621261,-0.619399,-0.226426,-2.148128,0.246280,0.407776,1.642609,0.694358,-0.198564
4.880000,1.924827,1.759403,1.470563,1.173253,0.447457,0.051139,-0.642658,-0.616902,-0.222361,-2.130966,0.253154,0.405086,1.789777,0.680364,-0.338173
4.890000,1.936527,1.763847,1.471064,1.166720,0.441300,0.048936,-0.663876,-0.614337,-0.218329,-2.112334,0.259889,0.401036,1.936432,0.666762,-0.470643
4.900000,1.948160,1.768229,1.471542,1.159976,0.435170,0.046772,-0.684900,-0.611705,-0.214344,-2.092239,0.266490,0.395698,2.082373,0.653576,-0.595740
4.910000,1.959726,1.772550,1.471999,1.153022,0.429067,0.044648,-0.705715,-0.609007,-0.210419,-2.070667,0.272961,0.389111,2.226837,0.640854,-0.712328
4.920000,1.971220,1.776811,1.472435,1.145862,0.422990,0.042564,-0.726308,-0.606246,-0.206566,-2.047681,0.279308,0.381437,2.370253,0.628591,-0.821180
4.930000,1.982642,1.781010,1.472851,1.138497,0.416942,0.040517,-0.746664,-0.603421,-0.202794,-2.023266,0.285534,0.372714,2.512487,0.616807,-0.922170
4.940000,1.993989,1.785150,1.473246,1.130930,0.410922,0.038507,-0.766769,-0.600535,-0.199115,-1.997436,0.291646,0.363021,2.653408,0.605524,-1.015170
4.950000,2.005260,1.789229,1.473621,1.123163,0.404931,0.036534,-0.786608,-0.597589,-0.195537,-1.970203,0.297647,0.352438,2.792883,0.594760,-1.100055
4.960000,2.016452,1.793248,1.473977,1.115198,0.398970,0.034596,-0.806168,-0.594583,-0.192069,-1.941560,0.303542,0.341011,2.930182,0.584563,-1.175787
4.970000,2.027563,1.797208,1.474313,1.107040,0.393040,0.032692,-0.825435,-0.591518,-0.188719,-1.911578,0.309339,0.328909,3.065842,0.574924,-1.243263
4.980000,2.038592,1.801109,1.474631,1.098691,0.387140,0.030822,-0.844395,-0.588396,-0.185493,-1.880248,0.315042,0.316173,3.199803,0.565859,-1.302468
4.990000,2.049537,1.804951,1.474930,1.090153,0.381272,0.028982,-0.863036,-0.585218,-0.182397,-1.847588,0.320658,0.302887,3.332005,0.557387,-1.353388
5.000000,2.060395,1.808735,1.475210,1.081431,0.375436,0.027173,-0.881343,-0.581984,-0.179437,-1.813614,0.326192,0.289133,3.462390,0.549523,-1.396009
5.010000,2.071165,1.812460,1.475473,1.072528,0.369633,0.025393,-0.899303,-0.578694,-0.176616,-1.778326,0.331649,0.274958,3.590372,0.542321,-1.429387
5.020000,2.081845,1.816128,1.475718,1.063446,0.363862,0.023640,-0.916905,-0.575351,-0.173939,-1.741790,0.337039,0.260531,3.716481,0.535759,-1.454551
5.030000,2.092433,1.819737,1.475946,1.054191,0.358126,0.021914,-0.934135,-0.571954,-0.171406,-1.704002,0.342366,0.245894,3.840722,0.529848,-1.471598
5.040000,2.102928,1.823290,1.476157,1.044765,0.352423,0.020212,-0.950981,-0.568504,-0.169021,-1.664981,0.347638,0.231126,3.963098,0.524601,-1.480628
5.050000,2.113328,1.826786,1.476350,1.035173,0.346756,0.018533,-0.967430,-0.565001,-0.166784,-1.624746,0.352860,0.216308,4.083614,0.520031,-1.481740
5.060000,2.123631,1.830225,1.476527,1.025418,0.341124,0.016876,-0.983472,-0.561447,-0.164695,-1.583302,0.358038,0.201481,4.201928,0.516211,-1.474106
5.070000,2.133836,1.833609,1.476688,1.015504,0.335527,0.015238,-0.999093,-0.557840,-0.162754,-1.540698,0.363184,0.186810,4.318433,0.513085,-1.458867
5.080000,2.143940,1.836936,1.476832,1.005437,0.329967,0.013620,-1.014282,-0.554183,-0.160958,-1.496939,0.368302,0.172328,4.433178,0.510660,-1.436233
5.090000,2.153944,1.840208,1.476960,0.995220,0.324444,0.012019,-1.029028,-0.550475,-0.159306,-1.452040,0.373400,0.158109,4.546208,0.508940,-1.406418
5.100000,2.163844,1.843425,1.477073,0.984858,0.318958,0.010433,-1.043319,-0.546715,-0.157795,-1.406020,0.378484,0.144223,4.657573,0.507931,-1.369634
5.110000,2.173640,1.846587,1.477169,0.974355,0.313510,0.008862,-1.057144,-0.542905,-0.156421,-1.358891,0.383557,0.130704,4.767233,0.507734,-1.325215
5.120000,2.183331,1.849695,1.477250,0.963717,0.308100,0.007305,-1.070493,-0.539044,-0.155179,-1.310677,0.388636,0.117701,4.875332,0.508247,-1.274360
5.130000,2.192914,1.852750,1.477315,0.952947,0.302729,0.005758,-1.083354,-0.535132,-0.154065,-1.261389,0.393724,0.105237,4.981926,0.509462,-1.217389
5.140000,2.202389,1.855750,1.477365,0.942051,0.297397,0.004223,-1.095717,-0.531169,-0.153073,-1.211043,0.398828,0.093372,5.087073,0.511375,-1.154621
5.150000,2.211755,1.858698,1.477400,0.931035,0.292106,0.002697,-1.107572,-0.527156,-0.152196,-1.159653,0.403954,0.082163,5.190831,0.513977,-1.086376
5.160000,2.221010,1.861592,1.477419,0.919902,0.286854,0.001179,-1.118907,-0.523090,-0.151427,-1.107240,0.409104,0.071632,5.293494,0.517401,-1.012225
5.170000,2.230153,1.864435,1.477423,0.908658,0.281644,-0.000332,-1.129713,-0.518973,-0.150760,-1.053798,0.414298,0.061901,5.394854,0.521485,-0.933328
5.180000,2.239183,1.867225,1.477413,0.897309,0.276475,-0.001837,-1.139980,-0.514804,-0.150187,-0.999348,0.419536,0.052980,5.494939,0.526207,-0.850099
5.190000,2.248099,1.869964,1.477387,0.885860,0.271348,-0.003336,-1.149697,-0.510582,-0.149698,-0.943903,0.424824,0.044912,5.593777,0.531543,-0.762950
5.200000,2.256900,1.872652,1.477346,0.874317,0.266264,-0.004831,-1.158854,-0.506307,-0.149286,-0.887476,0.430169,0.037733,5.691397,0.537470,-0.672292
5.210000,2.265585,1.875290,1.477290,0.862685,0.261222,-0.006322,-1.167443,-0.501979,-0.148940,-0.830102,0.435569,0.031456,5.788403,0.544140,-0.578017
5.220000,2.274153,1.877877,1.477219,0.850970,0.256224,-0.007810,-1.175453,-0.497596,-0.148653,-0.771738,0.441046,0.026158,5.884177,0.551332,-0.481121
5.230000,2.282604,1.880415,1.477134,0.839178,0.251270,-0.009295,-1.182875,-0.493158,-0.148414,-0.712423,0.446597,0.021840,5.978678,0.559004,-0.382080
5.240000,2.290936,1.882903,1.477033,0.827315,0.246361,-0.010779,-1.189699,-0.488664,-0.148213,-0.652169,0.452227,0.018522,6.071863,0.567110,-0.281370
5.250000,2.299150,1.885342,1.476918,0.815386,0.241497,-0.012260,-1.195915,-0.484113,-0.148040,-0.590990,0.457941,0.016217,6.163690,0.575607,-0.179466
5.260000,2.307244,1.887733,1.476788,0.803399,0.236679,-0.013739,-1.201516,-0.479505,-0.147885,-0.528935,0.463733,0.014928,6.255003,0.584651,-0.076664
5.270000,2.315218,1.890076,1.476643,0.791358,0.231907,-0.015218,-1.206491,-0.474838,-0.147738,-0.465934,0.469625,0.014676,6.344765,0.593971,0.026357
5.280000,2.323071,1.892371,1.476484,0.779271,0.227183,-0.016694,-1.210831,-0.470112,-0.147588,-0.402045,0.475613,0.015454,6.432827,0.603499,0.129101
5.290000,2.330803,1.894619,1.476310,0.767144,0.222505,-0.018169,-1.214529,-0.465325,-0.147426,-0.337284,0.481696,0.017256,6.519037,0.613163,0.231068
5.300000,2.338414,1.896821,1.476121,0.754982,0.217876,-0.019643,-1.217574,-0.460478,-0.147240,-0.271671,0.487876,0.020071,6.603245,0.622896,0.331762
5.310000,2.345902,1.898977,1.475917,0.742794,0.213296,-0.021114,-1.219960,-0.455568,-0.147021,-0.205270,0.494145,0.023895,6.686412,0.632838,0.430432
5.320000,2.353269,1.901087,1.475698,0.730586,0.208765,-0.022583,-1.221677,-0.450594,-0.146759,-0.138000,0.500523,0.028683,6.767141,0.642684,0.526864
5.330000,2.360514,1.903153,1.475465,0.718363,0.204284,-0.024049,-1.222717,-0.445557,-0.146444,-0.069937,0.506999,0.034423,6.845143,0.652338,0.620589
5.340000,2.367637,1.905173,1.475217,0.706133,0.199854,-0.025512,-1.223073,-0.440454,-0.146067,-0.001108,0.513569,0.041085,6.920134,0.661706,0.711140
5.350000,2.374637,1.907150,1.474955,0.693904,0.195475,-0.026970,-1.222737,-0.435285,-0.145619,0.068455,0.520231,0.048634,6.991826,0.670693,0.798050
5.360000,2.381515,1.909083,1.474678,0.681681,0.191149,-0.028424,-1.221702,-0.430049,-0.145091,0.138669,0.526974,0.057061,7.061143,0.679394,0.880126
5.370000,2.388270,1.910973,1.474386,0.669472,0.186875,-0.029872,-1.219961,-0.424745,-0.144476,0.209610,0.533809,0.066254,7.126440,0.687499,0.957715
5.380000,2.394904,1.912821,1.474081,0.657284,0.182654,-0.031313,-1.217508,-0.419373,-0.143764,0.281183,0.540721,0.076199,7.187283,0.694892,1.030438
5.390000,2.401416,1.914626,1.473760,0.645124,0.178488,-0.032747,-1.214336,-0.413931,-0.142949,0.353340,0.547704,0.086845,7.243236,0.701454,1.097919
5.400000,2.407807,1.916391,1.473426,0.633000,0.174376,-0.034172,-1.210439,-0.408419,-0.142025,0.426030,0.554747,0.098138,7.293865,0.707066,1.159777
5.410000,2.414076,1.918114,1.473077,0.620918,0.170319,-0.035587,-1.205814,-0.402836,-0.140984,0.499152,0.561836,0.110067,7.339891,0.711755,1.214461
5.420000,2.420225,1.919797,1.472714,0.608886,0.166319,-0.036991,-1.200455,-0.397182,-0.139822,0.572755,0.568972,0.122459,7.379581,0.715240,1.262909
5.430000,2.426254,1.921441,1.472337,0.596911,0.162376,-0.038383,-1.194358,-0.391456,-0.138533,0.646721,0.576136,0.135304,7.412361,0.717386,1.304889
5.440000,2.432164,1.923045,1.471946,0.585001,0.158490,-0.039761,-1.187519,-0.385659,-0.137114,0.720977,0.583315,0.148535,7.437653,0.718057,1.340165
5.450000,2.437955,1.924611,1.471542,0.573164,0.154663,-0.041125,-1.179937,-0.379790,-0.135562,0.795447,0.590492,0.162084,7.454882,0.717117,1.368503
5.460000,2.443627,1.926138,1.471124,0.561405,0.150895,-0.042472,-1.171610,-0.373849,-0.133871,0.870009,0.597648,0.175941,7.464416,0.714503,1.388153
5.470000,2.449183,1.927629,1.470692,0.549734,0.147186,-0.043802,-1.162537,-0.367837,-0.132042,0.944662,0.604773,0.189891,7.464618,0.709998,1.400582
5.480000,2.454622,1.929082,1.470248,0.538157,0.143538,-0.045112,-1.152717,-0.361754,-0.130073,1.019268,0.611842,0.203928,7.454798,0.703457,1.405740
5.490000,2.459946,1.930500,1.469790,0.526682,0.139951,-0.046403,-1.142152,-0.355600,-0.127964,1.093722,0.618834,0.217981,7.434263,0.694734,1.403580
5.500000,2.465156,1.931881,1.469320,0.515316,0.136427,-0.047671,-1.130844,-0.349378,-0.125714,1.167915,0.625729,0.231975,7.402321,0.683685,1.394053
5.510000,2.470253,1.933228,1.468837,0.504068,0.132964,-0.048916,-1.118795,-0.343086,-0.123324,1.241704,0.632500,0.245904,7.358896,0.670153,1.375435
5.520000,2.475238,1.934541,1.468342,0.492943,0.129565,-0.050137,-1.106011,-0.336728,-0.120796,1.315023,0.639123,0.259535,7.302606,0.654006,1.349556
5.530000,2.480112,1.935820,1.467834,0.481950,0.126230,-0.051332,-1.092497,-0.330304,-0.118134,1.387711,0.645571,0.272871,7.232683,0.635101,1.316574
5.540000,2.484878,1.937066,1.467315,0.471095,0.122959,-0.052499,-1.078260,-0.323817,-0.115340,1.459628,0.651816,0.285843,7.148362,0.613295,1.276643
5.550000,2.489535,1.938279,1.466784,0.460387,0.119754,-0.053638,-1.063308,-0.317269,-0.112419,1.530627,0.657827,0.298381,7.048874,0.588445,1.229921
5.560000,2.494086,1.939461,1.466242,0.449832,0.116614,-0.054747,-1.047651,-0.310662,-0.109374,1.600547,0.663537,0.310477,6.933599,0.561353,1.175110
5.570000,2.498532,1.940612,1.465690,0.439436,0.113541,-0.055825,-1.031301,-0.303999,-0.106211,1.669237,0.669000,0.321927,6.801606,0.530814,1.113997
5.580000,2.502875,1.941732,1.465126,0.429208,0.110534,-0.056871,-1.014271,-0.297283,-0.102937,1.736521,0.674141,0.332737,6.652111,0.496569,1.046917
5.590000,2.507117,1.942823,1.464552,0.419153,0.107595,-0.057884,-0.996576,-0.290517,-0.099559,1.802218,0.678919,0.342847,6.484328,0.458359,0.974205
5.600000,2.511259,1.943884,1.463969,0.409278,0.104724,-0.058862,-0.978232,-0.283706,-0.096083,1.866144,0.683294,0.352203,6.297473,0.415925,0.896193
5.610000,2.515303,1.944917,1.463375,0.399590,0.101921,-0.059805,-0.959259,-0.276851,-0.092516,1.928095,0.687423,0.360834,6.090935,0.363944,0.811194
5.620000,2.519251,1.945923,1.462773,0.390095,0.099187,-0.060712,-0.939678,-0.269959,-0.088869,1.987886,0.690785,0.368503,5.863735,0.307840,0.721813
5.630000,2.523105,1.946901,1.462161,0.380799,0.096522,-0.061582,-0.919510,-0.263037,-0.085149,2.045298,0.693567,0.375258,5.615064,0.247975,0.628631
5.640000,2.526868,1.947854,1.461541,0.371707,0.093926,-0.062415,-0.898780,-0.256090,-0.081367,2.100113,0.695733,0.381065,5.344118,0.184710,0.532229
5.650000,2.530540,1.948780,1.460913,0.362825,0.091400,-0.063209,-0.877517,-0.249125,-0.077531,2.152103,0.697251,0.385894,5.050090,0.118407,0.433190
5.660000,2.534125,1.949682,1.460277,0.354158,0.088944,-0.063965,-0.855748,-0.242151,-0.073653,2.201073,0.697786,0.389701,4.731213,0.057162,0.332620
5.670000,2.537624,1.950559,1.459634,0.345712,0.086557,-0.064682,-0.833506,-0.235171,-0.069741,2.246689,0.698038,0.392518,4.387758,-0.007346,0.230512
5.680000,2.541040,1.951413,1.458983,0.337490,0.084241,-0.065360,-0.810826,-0.228192,-0.065806,2.288744,0.697626,0.394308,4.019038,-0.075705,0.127383
5.690000,2.544375,1.952244,1.458327,0.329496,0.081993,-0.065998,-0.787744,-0.221221,-0.061858,2.326983,0.696509,0.395064,3.624364,-0.148500,0.023752
5.700000,2.547631,1.953053,1.457664,0.321736,0.079816,-0.066597,-0.764300,-0.214264,-0.057908,2.361142,0.694639,0.394783,3.203048,-0.226317,-0.079864
5.710000,2.550810,1.953841,1.456995,0.314212,0.077708,-0.067157,-0.740536,-0.207328,-0.053965,2.390952,0.692195,0.393504,2.754417,-0.315575,-0.183861
5.720000,2.553916,1.954608,1.456321,0.306926,0.075669,-0.067677,-0.716496,-0.200424,-0.050041,2.416137,0.688570,0.391150,2.277765,-0.410313,-0.286696
5.730000,2.556950,1.955354,1.455641,0.299882,0.073699,-0.068157,-0.692229,-0.193560,-0.046146,2.436412,0.683971,0.387776,1.772399,-0.510404,-0.387739
5.740000,2.559914,1.956082,1.454958,0.293082,0.071798,-0.068600,-0.667786,-0.186748,-0.042289,2.451487,0.678345,0.383404,1.237631,-0.615721,-0.486361
5.750000,2.562812,1.956791,1.454270,0.286527,0.069964,-0.069003,-0.643218,-0.179997,-0.038481,2.461064,0.671639,0.378059,0.672769,-0.726134,-0.581932
5.760000,2.565646,1.957481,1.453578,0.280218,0.068198,-0.069369,-0.618584,-0.173315,-0.034731,2.464806,0.664132,0.371790,0.077969,-0.849762,-0.674148
5.770000,2.568417,1.958155,1.452882,0.274155,0.066498,-0.069698,-0.593942,-0.166718,-0.031048,2.462480,0.655000,0.364605,-0.548410,-0.977221,-0.762014
5.780000,2.571130,1.958812,1.452184,0.268339,0.064863,-0.069991,-0.569356,-0.160219,-0.027442,2.453730,0.644578,0.356567,-1.207162,-1.107375,-0.844861
5.790000,2.573785,1.959452,1.451483,0.262768,0.063293,-0.070247,-0.544890,-0.153831,-0.023919,2.438226,0.632847,0.347727,-1.899083,-1.239085,-0.922019
5.800000,2.576386,1.960078,1.450779,0.257441,0.061786,-0.070469,-0.520615,-0.147567,-0.020490,2.415635,0.619795,0.338147,-2.624966,-1.371214,-0.992820
5.810000,2.578934,1.960688,1.450073,0.252355,0.060341,-0.070657,-0.496603,-0.141438,-0.017160,2.385514,0.605528,0.327808,-3.383163,-1.505230,-1.054425
5.820000,2.581434,1.961285,1.449366,0.247507,0.058957,-0.070813,-0.472930,-0.135461,-0.013935,2.347743,0.589814,0.316987,-4.177211,-1.637070,-1.108599
5.830000,2.583885,1.961868,1.448657,0.242895,0.057631,-0.070937,-0.449676,-0.129647,-0.010822,2.301847,0.572799,0.305662,-5.008203,-1.765279,-1.154938
5.840000,2.586292,1.962437,1.447947,0.238512,0.056363,-0.071030,-0.426922,-0.124009,-0.007823,2.247452,0.554526,0.293916,-5.877233,-1.888399,-1.193039
5.850000,2.588656,1.962995,1.447237,0.234354,0.055150,-0.071093,-0.404756,-0.118560,-0.004944,2.184172,0.535053,0.281830,-6.785396,-2.004975,-1.222496
5.860000,2.590980,1.963541,1.446526,0.230415,0.053991,-0.071129,-0.383269,-0.113312,-0.002188,2.111610,0.514453,0.269496,-7.733784,-2.113550,-1.242908
5.870000,2.593265,1.964075,1.445814,0.226686,0.052884,-0.071138,-0.362556,-0.108274,0.000445,2.029359,0.492813,0.257004,-8.723492,-2.212668,-1.253869
5.880000,2.595514,1.964598,1.445103,0.223161,0.051825,-0.071120,-0.342716,-0.103458,0.002952,1.936999,0.470236,0.244451,-9.755612,-2.300871,-1.254976
5.890000,2.597729,1.965112,1.444392,0.219829,0.050814,-0.071079,-0.323851,-0.098872,0.005334,1.834101,0.446837,0.231938,-10.831239,-2.376703,-1.245826
5.900000,2.599912,1.965615,1.443681,0.216680,0.049847,-0.071014,-0.306070,-0.094524,0.007591,1.720225,0.422748,0.219570,-11.951467,-2.438708,-1.226013
5.910000,2.602063,1.966109,1.442972,0.213703,0.048922,-0.070928,-0.289485,-0.090419,0.009726,1.594920,0.398114,0.207455,-13.117388,-2.485430,-1.195135
5.920000,2.604186,1.966593,1.442263,0.210886,0.048038,-0.070820,-0.274212,-0.086563,0.011742,1.457722,0.373095,0.195706,-14.330098,-2.515411,-1.152788
5.930000,2.606282,1.967070,1.441555,0.208214,0.047190,-0.070693,-0.260372,-0.082958,0.013642,1.308158,0.347866,0.184439,-15.590689,-2.527196,-1.098567
5.940000,2.608351,1.967537,1.440849,0.205673,0.046378,-0.070548,-0.248091,-0.079606,0.015433,1.145745,0.322617,0.173775,-16.900255,-2.519328,-1.032069
5.950000,2.610396,1.967997,1.440144,0.203247,0.045597,-0.070385,-0.237501,-0.076505,0.017120,0.969986,0.297550,0.163840,-18.259890,-2.490350,-0.952890
5.960000,2.612416,1.968449,1.439441,0.200917,0.044847,-0.070206,-0.228738,-0.073653,0.018712,0.780376,0.272885,0.154761,-19.670687,-2.438805,-0.860627
5.970000,2.614414,1.968894,1.438740,0.198666,0.044123,-0.070011,-0.221942,-0.071045,0.020219,0.576398,0.248854,0.146672,-21.133741,-2.363238,-0.754875
5.980000,2.616390,1.969332,1.438041,0.196471,0.043425,-0.069801,-0.217259,-0.068673,0.021649,0.357524,0.225705,0.139710,-22.650144,-2.262192,-0.635230
5.990000,2.618344,1.969763,1.437344,0.194313,0.042749,-0.069578,-0.214843,-0.066527,0.023017,0.123214,0.203700,0.134015,-24.220991,-2.134210,-0.501289
6.000000,2.620276,1.970187,1.436650,0.192167,0.042094,-0.069341,-0.214849,-0.064595,0.024334,-0.127081,0.183115,0.129733,-25.847376,-1.977835,-0.352648
