time,x,y,z,vx,vy,vz,ax,ay,az,jx,jy,jz,sx,sy,sz
0.000000,-2.374797,-1.453827,1.401179,0.007090,-0.010838,0.020526,0.018349,0.053713,-0.012712,1.609159,0.456706,0.083558,31.823943,2.997668,4.371978
0.050000,-2.374442,-1.454369,1.402206,0.008008,-0.008152,0.019890,0.098807,0.076548,-0.008534,3.200356,0.606589,0.302157,41.166947,5.005577,5.948475
0.100000,-2.373996,-1.454642,1.403168,0.016971,-0.003183,0.019672,0.338385,0.114371,0.017504,5.725854,0.957264,0.678406,34.780164,8.704513,4.370097
0.150000,-2.372745,-1.454687,1.404173,0.041846,0.003285,0.021640,0.671392,0.172274,0.059306,6.678373,1.477041,0.739167,5.664058,8.394023,-2.260355
0.200000,-2.369811,-1.454314,1.405332,0.084110,0.014044,0.025603,1.006222,0.262076,0.091420,6.292260,1.796666,0.452370,-14.157662,2.126879,-7.097457
0.250000,-2.364334,-1.453283,1.406733,0.142468,0.029492,0.030782,1.300618,0.351941,0.104543,5.262606,1.689728,0.029421,-23.826837,-3.643779,-8.813534
0.300000,-2.355564,-1.451364,1.408411,0.214172,0.049238,0.036057,1.532483,0.431048,0.094362,3.909576,1.432288,-0.428983,-28.245759,-5.754228,-8.564259
0.350000,-2.342917,-1.448359,1.410339,0.295716,0.072597,0.040219,1.691576,0.495170,0.061645,2.438031,1.114306,-0.827004,-29.094747,-6.597962,-6.591598
0.400000,-2.325993,-1.444105,1.412432,0.383329,0.098755,0.042222,1.776286,0.542479,0.011662,1.000101,0.772492,-1.088143,-27.279976,-6.852496,-3.412744
0.450000,-2.304584,-1.438483,1.414561,0.473345,0.126845,0.041385,1.791586,0.572419,-0.047169,-0.289967,0.429056,-1.168279,-23.521775,-6.708637,0.262934
0.500000,-2.278658,-1.431420,1.416571,0.562488,0.155997,0.037505,1.747289,0.585385,-0.105166,-1.352076,0.101628,-1.061849,-18.489817,-6.241000,3.690190
0.550000,-2.248335,-1.422884,1.418311,0.648074,0.185384,0.030868,1.656378,0.582582,-0.153354,-2.138949,-0.195044,-0.799260,-12.827192,-5.510517,6.250676
0.600000,-2.213851,-1.412882,1.419658,0.728126,0.214255,0.022169,1.533394,0.565880,-0.185092,-2.634795,-0.449424,-0.436782,-7.136764,-4.586615,7.570797
0.650000,-2.175522,-1.401458,1.420528,0.801413,0.241972,0.012359,1.392899,0.537639,-0.197032,-2.852625,-0.653705,-0.042180,-1.945993,-3.544959,7.568024
0.700000,-2.133710,-1.388685,1.420894,0.867416,0.268019,0.002466,1.248132,0.500510,-0.189310,-2.829395,-0.803920,0.320021,2.335474,-2.457602,6.424141
0.750000,-2.088781,-1.374656,1.420775,0.926226,0.292023,-0.006572,1.109959,0.457247,-0.165030,-2.619078,-0.899466,0.600234,5.448143,-1.382372,4.503686
0.800000,-2.041087,-1.359483,1.420236,0.978412,0.313744,-0.014037,0.986224,0.410563,-0.129287,-2.284580,-0.942157,0.770389,7.292086,-0.355663,2.246655
0.850000,-1.990940,-1.343282,1.419371,1.024849,0.333079,-0.019501,0.881501,0.363032,-0.087991,-1.889869,-0.935032,0.824900,7.910450,0.609054,0.065519
0.900000,-1.938602,-1.326175,1.418286,1.066562,0.350047,-0.022836,0.797237,0.317060,-0.046797,-1.493535,-0.881252,0.776941,7.453782,1.516575,-1.730535
0.950000,-1.884284,-1.308277,1.417088,1.104573,0.364785,-0.024180,0.732148,0.274906,-0.010297,-1.144491,-0.783374,0.651846,6.137152,2.380747,-2.972718
1.000000,-1.828145,-1.289696,1.415868,1.139777,0.377538,-0.023866,0.682788,0.238722,0.018388,-0.879820,-0.643177,0.479669,4.201643,3.213475,-3.631380
1.050000,-1.770306,-1.270523,1.414701,1.172851,0.388657,-0.022341,0.644166,0.210589,0.037670,-0.724327,-0.462027,0.288708,1.887175,4.014750,-3.785376
1.100000,-1.710860,-1.250830,1.413634,1.204193,0.398597,-0.020099,0.610355,0.192520,0.047259,-0.691103,-0.241702,0.101132,-0.582046,4.765681,-3.575518
1.150000,-1.649887,-1.230664,1.412691,1.233887,0.407909,-0.017616,0.575056,0.186418,0.047783,-0.782531,0.014541,-0.068844,-3.002484,5.425689,-3.155978
1.200000,-1.587471,-1.210040,1.411873,1.261699,0.417238,-0.015320,0.532102,0.193974,0.040374,-0.991351,0.300867,-0.214466,-5.191420,5.934121,-2.654925
1.250000,-1.523717,-1.188940,1.411159,1.287097,0.427306,-0.013578,0.475920,0.216505,0.026336,-1.301673,0.607953,-0.334336,-6.986667,6.215979,-2.151293
1.300000,-1.458761,-1.167309,1.410515,1.309291,0.438889,-0.012687,0.401935,0.254769,0.006941,-1.690018,0.922465,-0.429595,-8.248637,6.191199,-1.669704
1.350000,-1.392788,-1.145051,1.409890,1.327290,0.452783,-0.012884,0.306919,0.308752,-0.016623,-2.126537,1.227073,-0.501307,-8.865668,5.787239,-1.191154
1.400000,-1.326032,-1.122031,1.409226,1.339983,0.469764,-0.014349,0.189281,0.377476,-0.043190,-2.576585,1.501189,-0.548711,-8.762302,4.955045,-0.673957
1.450000,-1.258789,-1.098075,1.408456,1.346219,0.490531,-0.017203,0.049260,0.458871,-0.071494,-3.002767,1.722578,-0.568702,-7.909570,3.688010,-0.078032
1.500000,-1.191410,-1.072977,1.407506,1.344909,0.515651,-0.021499,-0.110996,0.549734,-0.100060,-3.367542,1.869990,-0.556514,-6.335405,2.040980,0.614493
1.550000,-1.124298,-1.046509,1.406306,1.335119,0.545504,-0.027209,-0.287494,0.645870,-0.127146,-3.636308,1.926676,-0.507253,-4.131243,0.140834,1.388727
1.600000,-1.057898,-1.018427,1.404785,1.316159,0.580238,-0.034213,-0.474626,0.742402,-0.150785,-3.780666,1.884073,-0.417641,-1.450034,-1.822409,2.200071
1.650000,-0.992682,-0.988486,1.402884,1.287656,0.619745,-0.042288,-0.665561,0.834277,-0.168910,-3.781311,1.744435,-0.287246,1.506558,-3.626580,2.987669
1.700000,-0.929133,-0.956453,1.400557,1.249603,0.663666,-0.051104,-0.852758,0.916845,-0.179510,-3.630010,1.521415,-0.118874,4.509518,-5.059616,3.688753
1.750000,-0.867722,-0.922119,1.397774,1.202381,0.711429,-0.060238,-1.028562,0.986418,-0.180797,-3.330359,1.238473,0.081629,7.327651,-5.957949,4.245489
1.800000,-0.808895,-0.885310,1.394533,1.146747,0.762308,-0.069184,-1.185793,1.040693,-0.171347,-2.897245,0.925620,0.305675,9.752052,-6.232190,4.602954
1.850000,-0.753047,-0.845888,1.390856,1.083801,0.815498,-0.077373,-1.318286,1.078980,-0.150230,-2.355154,0.615254,0.541925,11.616638,-5.878183,4.702979
1.900000,-0.700515,-0.803760,1.386795,1.014918,0.870206,-0.084207,-1.421309,1.102218,-0.117155,-1.735581,0.337802,0.775972,12.812491,-4.974783,4.480397
1.950000,-0.651556,-0.758868,1.382435,0.941670,0.925720,-0.089089,-1.491844,1.112761,-0.072633,-1.073905,0.117776,0.989964,13.294456,-3.671028,3.866716
2.000000,-0.606348,-0.711188,1.377886,0.865734,0.981482,-0.091470,-1.528699,1.113996,-0.018158,-0.406136,-0.029301,1.162644,13.079804,-2.166073,2.802998
2.050000,-0.564982,-0.660720,1.373288,0.788800,1.037120,-0.090904,-1.532458,1.109830,0.043632,0.234076,-0.098831,1.270264,12.239425,-0.685675,1.260107
2.100000,-0.527468,-0.607476,1.368796,0.712488,1.092465,-0.087107,-1.505292,1.104113,0.108868,0.817807,-0.097868,1.288655,10.881653,0.540925,-0.738196
2.150000,-0.493733,-0.551473,1.364577,0.638271,1.147531,-0.080018,-1.450677,1.100044,0.172497,1.322241,-0.044739,1.196445,9.130727,1.301058,-3.095029
2.200000,-0.463640,-0.492723,1.360794,0.567421,1.202469,-0.069857,-1.373068,1.099639,0.228513,1.730880,0.032237,0.979152,7.105904,1.415197,-5.628449
2.250000,-0.436991,-0.431226,1.357591,0.500964,1.257495,-0.057166,-1.277589,1.103267,0.270412,2.032831,0.096781,0.633600,4.908015,0.751989,-8.072025
2.300000,-0.413544,-0.366973,1.355078,0.439662,1.312796,-0.042816,-1.169785,1.109317,0.291873,2.221681,0.107436,0.171949,2.616957,-0.754812,-10.090612
2.350000,-0.393025,-0.299947,1.353310,0.383986,1.368427,-0.027979,-1.055421,1.114011,0.287607,2.294527,0.021300,-0.375461,0.300413,-3.085279,-11.312144
2.400000,-0.375145,-0.230131,1.352280,0.334120,1.424197,-0.014055,-0.940332,1.111447,0.254327,2.251722,-0.201092,-0.959265,-1.967895,-6.110374,-11.374000
2.450000,-0.359613,-0.157527,1.351904,0.289953,1.479571,-0.002546,-0.830249,1.093902,0.191681,2.097737,-0.589738,-1.512861,-4.085384,-9.573862,-9.981500
2.500000,-0.346150,-0.082173,1.352025,0.251095,1.533587,0.005113,-0.730558,1.052473,0.103041,1.843184,-1.158478,-1.957415,-5.902928,-13.087659,-6.976183
2.550000,-0.334504,-0.004168,1.352416,0.216897,1.584819,0.007758,-0.645930,0.978054,-0.004061,1.507445,-1.898504,-2.210480,-7.224207,-16.150008,-2.408996
2.600000,-0.324460,0.076308,1.352801,0.186502,1.631393,0.004707,-0.579814,0.862623,-0.118007,1.120763,-2.773479,-2.198315,-7.830671,-18.196588,3.394844
2.650000,-0.315854,0.158971,1.352886,0.158916,1.671081,-0.004043,-0.533854,0.700706,-0.223892,0.724378,-3.718162,-1.870995,-7.531747,-18.690121,9.803582
2.700000,-0.308569,0.243416,1.352397,0.133116,1.701463,-0.017682,-0.507376,0.490806,-0.305107,0.367589,-4.642491,-1.217956,-6.229181,-17.241419,15.909436
2.750000,-0.302542,0.329117,1.351118,0.108178,1.720161,-0.034554,-0.497095,0.236457,-0.345688,0.101459,-5.442304,-0.280052,-3.976220,-13.737273,20.645872
2.800000,-0.297751,0.415433,1.348941,0.083407,1.725109,-0.052251,-0.497230,-0.053424,-0.333112,-0.030034,-6.016218,0.846631,-1.008208,-8.431986,22.991653
2.850000,-0.294201,0.501628,1.345893,0.058455,1.714819,-0.067865,-0.500099,-0.365165,-0.261025,0.000639,-6.285503,2.019114,2.275846,-1.947908,22.220357
2.900000,-0.291905,0.586915,1.342155,0.033397,1.688592,-0.078354,-0.497166,-0.681974,-0.131201,0.197551,-6.211009,3.068666,5.386212,4.851618,18.114755
2.950000,-0.290862,0.670488,1.338058,0.008738,1.646622,-0.080985,-0.480344,-0.986266,0.045842,0.539260,-5.800341,3.830589,7.857832,11.090701,11.064602
3.000000,-0.291032,0.751577,1.334056,-0.014638,1.589966,-0.073769,-0.443240,-1.262008,0.251858,0.983334,-5.101939,4.175127,9.369859,16.118624,2.011348
3.050000,-0.292325,0.829484,1.330681,-0.035586,1.520421,-0.055799,-0.382010,-1.496459,0.463355,1.476246,-4.188479,4.031724,9.808975,19.657726,-7.739468
3.100000,-0.294590,0.903619,1.328476,-0.052839,1.440320,-0.027434,-0.295616,-1.680856,0.655031,1.964232,-3.136166,3.401180,9.274456,21.808476,-16.772661
3.150000,-0.297609,0.973516,1.327937,-0.065147,1.352335,0.009704,-0.185587,-1.810076,0.803473,2.403691,-2.007631,2.354458,8.047023,22.920665,-23.812424
3.200000,-0.301105,1.038852,1.329447,-0.071397,1.259312,0.052913,-0.055246,-1.881619,0.890476,2.768934,-0.844100,1.019937,6.480959,23.391733,-27.923410
3.250000,-0.304749,1.099447,1.333229,-0.070672,1.164173,0.098751,0.091307,-1.894486,0.905466,3.051787,0.331542,-0.437883,4.872977,23.478523,-28.633655
3.300000,-0.308172,1.155270,1.339322,-0.062267,1.069864,0.143460,0.249932,-1.848465,0.846688,3.256232,1.503753,-1.843428,3.408613,23.191006,-25.967329
3.350000,-0.310976,1.206434,1.347575,-0.045679,0.979327,0.183420,0.416930,-1.744111,0.721124,3.392649,2.650643,-3.034616,2.138554,22.288788,-20.414003
3.400000,-0.312740,1.253202,1.357664,-0.020574,0.895453,0.215572,0.589197,-1.583401,0.543226,3.470087,3.732631,-3.884828,0.971677,20.379064,-12.848537
3.450000,-0.313033,1.295979,1.369132,0.013241,0.820986,0.237743,0.763938,-1.370848,0.332641,3.489816,4.688549,-4.319470,-0.261726,17.090682,-4.394702
3.500000,-0.311416,1.335301,1.381438,0.055820,0.758368,0.248836,0.938179,-1.114546,0.111279,3.443915,5.441700,-4.324298,-1.721691,12.253068,3.752891
3.550000,-0.307451,1.371816,1.394015,0.107059,0.709532,0.248871,1.108330,-0.826678,-0.099789,3.317647,5.913856,-3.944181,-3.498086,6.011909,10.522166
3.600000,-0.300710,1.406254,1.406325,0.166653,0.675700,0.238858,1.269943,-0.523160,-0.283139,3.094106,6.042891,-3.272082,-5.567606,-1.149821,15.142208
3.650000,-0.290786,1.439386,1.417901,0.234053,0.657216,0.220557,1.417740,-0.222389,-0.426997,2.760887,5.798874,-2.429960,-7.778725,-8.492440,17.265804
3.700000,-0.277305,1.471976,1.428381,0.308427,0.653461,0.196158,1.546032,0.056727,-0.526135,2.316234,5.193647,-1.545501,-9.912667,-15.181823,16.999965
3.750000,-0.259943,1.504732,1.437517,0.388657,0.662889,0.167944,1.649364,0.296976,-0.581547,1.769620,4.280692,-0.729963,-11.755263,-20.477111,14.836588
3.800000,-0.238439,1.538264,1.445175,0.473364,0.683159,0.138003,1.722994,0.484796,-0.599131,1.140707,3.145936,-0.061843,-13.100896,-23.877047,11.504655
3.850000,-0.212606,1.573048,1.451317,0.560956,0.711368,0.108030,1.763435,0.611570,-0.587732,0.459530,1.892987,0.420502,-13.792028,-25.189603,7.783647
3.900000,-0.182343,1.609401,1.455978,0.649707,0.744316,0.079230,1.768947,0.674095,-0.557081,-0.238496,0.626975,0.716522,-13.786178,-24.517346,4.333894
3.950000,-0.147636,1.647480,1.459240,0.737851,0.778778,0.052322,1.739585,0.674267,-0.516079,-0.919088,-0.558748,0.853892,-13.132335,-22.177404,1.592538
4.000000,-0.108558,1.687279,1.461210,0.823666,0.811743,0.027622,1.677038,0.618220,-0.471692,-1.551729,-1.590765,0.875776,-11.925253,-18.602870,-0.252678
4.050000,-0.065269,1.728654,1.462003,0.905555,0.840600,0.005153,1.584412,0.515191,-0.428502,-2.111613,-2.419035,0.828624,-10.296039,-14.259865,-1.227275
4.100000,-0.018003,1.771339,1.461726,0.982107,0.863262,-0.015228,1.465877,0.376317,-0.388829,-2.581333,-3.016752,0.753048,-8.396514,-9.588570,-1.497455
4.150000,0.032941,1.814980,1.460480,1.052142,0.878231,-0.033730,1.326279,0.213515,-0.353197,-2.951264,-3.377892,0.678878,-6.377596,-4.968374,-1.289709
4.200000,0.087211,1.859162,1.458353,1.114735,0.884613,-0.050548,1.170751,0.038527,-0.320941,-3.219093,-3.513589,0.624077,-4.374775,-0.702086,-0.824570
4.250000,0.144415,1.903441,1.455425,1.169217,0.882084,-0.065824,1.004370,-0.137843,-0.290789,-3.388742,-3.448100,0.596421,-2.498966,2.988286,-0.275468
4.300000,0.204133,1.947371,1.451770,1.215172,0.870829,-0.079627,0.831876,-0.306283,-0.261299,-3.468989,-3.214760,0.596531,-0.832394,5.959303,0.245976
4.350000,0.265932,1.990524,1.447462,1.252405,0.851456,-0.091954,0.657471,-0.459319,-0.231136,-3.471981,-2.852170,0.621019,0.572211,8.140205,0.683798
4.400000,0.329374,2.032516,1.442575,1.280919,0.824897,-0.102740,0.484678,-0.591500,-0.199197,-3.411768,-2.400740,0.664910,1.690354,9.524544,1.019634
4.450000,0.394024,2.073014,1.437188,1.300873,0.792306,-0.111874,0.316294,-0.699393,-0.164645,-3.302946,-1.899716,0.722982,2.523003,10.159735,1.251842
4.500000,0.459461,2.111747,1.431388,1.312548,0.754958,-0.119205,0.154384,-0.781471,-0.126899,-3.159468,-1.384766,0.790095,3.092688,10.134940,1.378803
4.550000,0.525279,2.148510,1.425268,1.316311,0.714159,-0.124563,0.000347,-0.837870,-0.085636,-2.993677,-0.886221,0.860863,3.438698,9.568009,1.390191
4.600000,0.591092,2.183163,1.418931,1.312583,0.671171,-0.127768,-0.144984,-0.870093,-0.040813,-2.815598,-0.427966,0.929114,3.611582,8.592418,1.266755
4.650000,0.656537,2.215627,1.412491,1.301813,0.627149,-0.128645,-0.281213,-0.880667,0.007276,-2.632519,-0.026980,0.987538,3.667189,7.345134,0.986653
4.700000,0.721273,2.245878,1.406067,1.284462,0.583104,-0.127041,-0.408236,-0.872791,0.057941,-2.448879,0.306548,1.027779,3.660580,5.956166,0.535031
4.750000,0.784983,2.273937,1.399787,1.260989,0.539870,-0.122851,-0.526101,-0.850012,0.110054,-2.266461,0.568637,1.041041,3.640294,4.540212,-0.086679
4.800000,0.847372,2.299865,1.393782,1.231852,0.498103,-0.116036,-0.634882,-0.815928,0.162045,-2.084850,0.760569,1.019111,3.643646,3.190767,-0.854530
4.850000,0.908168,2.323747,1.388183,1.197501,0.458278,-0.106646,-0.734586,-0.773955,0.211965,-1.902096,0.887714,0.955588,3.693778,1.976961,-1.720509
4.900000,0.967122,2.345692,1.383117,1.158393,0.420707,-0.094839,-0.825091,-0.727156,0.257604,-1.715472,0.958265,0.847060,3.799023,0.943063,-2.615923
4.950000,1.024008,2.365818,1.378699,1.114992,0.385562,-0.080886,-0.906133,-0.678128,0.296671,-1.522194,0.982020,0.693996,3.954703,0.110390,-3.458869
5.000000,1.078622,2.384249,1.375029,1.067780,0.352894,-0.065172,-0.977311,-0.628954,0.327003,-1.320002,0.969304,0.501173,4.147037,-0.518910,-4.164294
5.050000,1.130786,2.401108,1.372182,1.017261,0.322667,-0.048185,-1.038133,-0.581198,0.346788,-1.107490,0.930129,0.277567,4.358289,-0.956921,-4.654847
5.100000,1.180348,2.416515,1.370210,0.963966,0.294775,-0.030493,-1.088060,-0.535941,0.354760,-0.884173,0.873612,0.035689,4.571958,-1.224748,-4.870896
5.150000,1.227182,2.430585,1.369133,0.908455,0.269072,-0.012709,-1.126550,-0.493837,0.350357,-0.650294,0.807654,-0.209523,4.776696,-1.347870,-4.778363
5.200000,1.271193,2.443422,1.368939,0.851311,0.245391,0.004543,-1.153089,-0.455176,0.333808,-0.406503,0.738825,-0.442148,4.967846,-1.352669,-4.373469
5.250000,1.312313,2.455124,1.369587,0.793146,0.223555,0.020671,-1.167201,-0.419954,0.306142,-0.153510,0.672387,-0.646870,5.146031,-1.264468,-3.683873
5.300000,1.350508,2.465778,1.371006,0.734591,0.203395,0.035157,-1.168440,-0.387937,0.269121,0.108100,0.612378,-0.810535,5.312856,-1.106988,-2.766070
5.350000,1.385773,2.475464,1.373103,0.676302,0.184761,0.047583,-1.156391,-0.358717,0.225089,0.377776,0.561688,-0.923477,5.464525,-0.902897,-1.699281
5.400000,1.418138,2.484254,1.375765,0.618952,0.167524,0.057666,-1.130663,-0.331768,0.176773,0.654553,0.522089,-0.980463,5.584722,-0.674871,-0.576500
5.450000,1.447668,2.492216,1.378869,0.563236,0.151584,0.065261,-1.090935,-0.306508,0.127042,0.936248,0.494201,-0.981127,5.638357,-0.446592,0.506256
5.500000,1.474461,2.499412,1.382291,0.509859,0.136873,0.070370,-1.037038,-0.282348,0.078660,1.218388,0.477429,-0.929838,5.567685,-0.243205,1.461055
5.550000,1.498654,2.505903,1.385906,0.459532,0.123349,0.073127,-0.969096,-0.258765,0.034059,1.493016,0.469881,-0.835022,5.291859,-0.091995,2.217764
5.600000,1.520415,2.511747,1.389603,0.412949,0.110997,0.073776,-0.887736,-0.235360,-0.004842,1.747574,0.468230,-0.708061,4.709904,-0.019594,2.731408
5.650000,1.539949,2.517003,1.393284,0.370758,0.099813,0.072643,-0.794339,-0.211942,-0.036747,1.964007,0.467921,-0.561881,3.706468,-0.045918,2.985910
5.700000,1.557490,2.521729,1.396868,0.333515,0.089802,0.070101,-0.691336,-0.188568,-0.061030,2.118221,0.463638,-0.409470,2.159694,-0.188525,2.991611
5.750000,1.573300,2.525983,1.400294,0.301625,0.080957,0.066540,-0.582517,-0.165578,-0.077694,2.179976,0.449069,-0.262720,-0.052746,-0.459000,2.779632
5.800000,1.587653,2.529824,1.403522,0.275263,0.073245,0.062332,-0.473338,-0.143661,-0.087302,2.112946,0.417738,-0.131507,-3.055653,-0.823884,2.397135
5.850000,1.600826,2.533308,1.406527,0.254291,0.066591,0.057809,-0.371222,-0.123804,-0.090845,1.874411,0.366680,-0.023006,-1.917796,0.908016,3.864867
5.900000,1.613082,2.536483,1.409303,0.238141,0.060864,0.053247,-0.285897,-0.106993,-0.089602,1.921167,0.508540,0.254980,-1.095246,2.388422,4.916669
5.950000,1.624641,2.539394,1.411852,0.225701,0.055891,0.048849,-0.179106,-0.072950,-0.065347,1.764886,0.605523,0.468661,-5.272201,0.216477,1.972345
6.000000,1.635652,2.542073,1.414188,0.220231,0.053569,0.046712,-0.109408,-0.046441,-0.042736,1.393947,0.530187,0.452214,-7.418793,-1.506705,-0.328928
