time,x,y,z,vx,vy,vz,ax,ay,az,jx,jy,jz,sx,sy,sz,roll,pitch,yaw,p,q,r
0.000000,-2.020496,-1.384397,-1.427540,-0.016322,0.008932,-0.021643,0.329825,-0.086217,0.049795,-8.808477,-0.938144,-0.222600,200.866890,158.872246,33.226463,-0.008828,-0.033780,0.000000,-0.096125,0.902194,-0.000000
0.010000,-2.020644,-1.384312,-1.427754,-0.013432,0.008049,-0.021151,0.251330,-0.087986,0.049163,-6.934802,0.552024,0.089652,174.272763,139.407715,29.268791,-0.009011,-0.025743,0.000000,0.056284,0.709736,-0.000000
0.020000,-2.020767,-1.384236,-1.427963,-0.011238,0.007219,-0.020650,0.190283,-0.075801,0.051460,-5.315113,1.854836,0.363658,150.051255,121.391009,25.575769,-0.007766,-0.019497,0.000000,0.189654,0.543713,-0.000000
0.030000,-2.020870,-1.384167,-1.428167,-0.009577,0.006573,-0.020113,0.144259,-0.051466,0.056317,-3.926237,2.984471,0.602017,128.091860,104.762421,22.137570,-0.005276,-0.014789,0.000000,0.305585,0.401533,0.000000
0.040000,-2.020960,-1.384104,-1.428365,-0.008310,0.006224,-0.019516,0.111062,-0.016644,0.063390,-2.746104,3.954512,0.807226,108.284070,89.462238,18.944370,-0.001708,-0.011394,0.000000,0.405558,0.280769,-0.000000
0.050000,-2.021038,-1.384042,-1.428557,-0.007319,0.006270,-0.018839,0.088711,0.027136,0.072359,-1.753752,4.777945,0.981688,90.517380,75.430752,15.986342,0.002787,-0.009110,0.000000,0.490929,0.179166,0.000000
0.060000,-2.021107,-1.383977,-1.428742,-0.006505,0.006792,-0.018063,0.075428,0.078468,0.082929,-0.929321,5.467157,1.127704,74.681281,62.608252,13.253662,0.008067,-0.007754,0.000000,0.562943,0.094632,-0.000000
0.070000,-2.021168,-1.383904,-1.428918,-0.005786,0.007860,-0.017176,0.069628,0.136071,0.094826,-0.254059,6.033941,1.247480,60.665266,50.935028,10.736504,0.014005,-0.007167,0.000000,0.622747,0.025227,0.000000
0.080000,-2.021222,-1.383817,-1.429085,-0.005093,0.009531,-0.016163,0.069908,0.198776,0.107798,0.289683,6.489490,1.343120,48.358830,40.351370,8.425041,0.020484,-0.007205,0.000000,0.671400,-0.030847,-0.000000
0.090000,-2.021270,-1.383711,-1.429241,-0.004371,0.011849,-0.015017,0.075038,0.265525,0.121615,0.718448,6.844401,1.416633,37.651464,30.797567,6.309449,0.027399,-0.007745,0.000000,0.709891,-0.075255,-0.000000
0.100000,-2.021310,-1.383578,-1.429385,-0.003579,0.014851,-0.013729,0.083945,0.335362,0.136063,1.047674,7.108675,1.469929,28.432662,22.213911,4.379901,0.034651,-0.008677,0.000000,0.739146,-0.109543,-0.000000
0.110000,-2.021341,-1.383412,-1.429515,-0.002683,0.018564,-0.012294,0.095708,0.407428,0.150952,1.291695,7.291714,1.504819,20.591916,14.540690,2.626573,0.042154,-0.009908,0.000000,0.760036,-0.135139,-0.000000
0.120000,-2.021363,-1.383205,-1.429630,-0.001658,0.023005,-0.010709,0.109540,0.480955,0.166104,1.463738,7.402325,1.523015,14.018721,7.718194,1.039639,0.049827,-0.011358,0.000000,0.773381,-0.153362,-0.000000
0.130000,-2.021374,-1.382949,-1.429729,-0.000488,0.028186,-0.008972,0.124783,0.555260,0.181362,1.575926,7.448715,1.526133,8.602568,1.686714,-0.390727,0.057599,-0.012959,0.000000,0.779957,-0.165422,0.000000
0.140000,-2.021372,-1.382638,-1.429809,0.000840,0.034111,-0.007082,0.140895,0.629741,0.196582,1.639277,7.438497,1.515690,4.232951,-3.613460,-1.674351,0.065406,-0.014655,0.000000,0.780491,-0.172424,-0.000000
0.150000,-2.021356,-1.382264,-1.429870,0.002332,0.040779,-0.005041,0.157439,0.703865,0.211635,1.663705,7.378684,1.493103,0.799363,-8.242040,-2.821058,0.073191,-0.016401,0.000000,0.775665,-0.175366,0.000000
0.160000,-2.021325,-1.381820,-1.429909,0.003989,0.048185,-0.002850,0.174069,0.777170,0.226408,1.658016,7.275695,1.459692,-1.808703,-12.258734,-3.840674,0.080903,-0.018161,0.000000,0.766112,-0.175139,-0.000000
0.170000,-2.021276,-1.381298,-1.429926,0.005813,0.056318,-0.000514,0.190525,0.849254,0.240797,1.629914,7.135350,1.416680,-3.701754,-15.723253,-4.743024,0.088499,-0.019908,0.000000,0.752416,-0.172530,0.000000
0.180000,-2.021208,-1.380692,-1.429919,0.007799,0.065165,0.001964,0.206615,0.919770,0.254713,1.585996,6.962872,1.365190,-4.990298,-18.695307,-5.537934,0.095940,-0.021620,0.000000,0.735113,-0.168214,0.000000
0.190000,-2.021119,-1.379993,-1.429886,0.009943,0.074708,0.004579,0.222210,0.988420,0.268076,1.531755,6.762887,1.306247,-5.784840,-21.234606,-6.235229,0.103191,-0.023284,0.000000,0.714680,-0.162758,0.000000
0.200000,-2.021009,-1.379195,-1.429827,0.012241,0.084926,0.007324,0.237230,1.054950,0.280816,1.471578,6.539423,1.240778,-6.195889,-23.400861,-6.844735,0.110224,-0.024890,0.000000,0.691546,-0.156616,-0.000000
0.210000,-2.020874,-1.378292,-1.429740,0.014679,0.095795,0.010193,0.251902,1.119288,0.292879,1.433486,6.309350,1.170228,-6.958786,-25.593145,-7.391844,0.117029,-0.026462,0.000000,0.667467,-0.152717,-0.000000
0.220000,-2.020715,-1.377277,-1.429623,0.017268,0.107299,0.013179,0.265879,1.181069,0.304204,1.361093,6.043694,1.093870,-7.482693,-27.490251,-7.868909,0.123566,-0.027963,0.000000,0.639462,-0.145174,-0.000000
0.230000,-2.020528,-1.376144,-1.429476,0.019994,0.119407,0.016274,0.279109,1.240103,0.314742,1.284515,5.760468,1.013057,-7.801606,-29.110332,-8.283850,0.129812,-0.029386,0.000000,0.609417,-0.137133,0.000000
0.240000,-2.020314,-1.374887,-1.429297,0.022848,0.132091,0.019471,0.291561,1.296229,0.324452,1.205631,5.462351,0.928373,-7.949521,-30.471544,-8.644586,0.135748,-0.030728,0.000000,0.577634,-0.128792,-0.000000
0.250000,-2.020071,-1.373500,-1.429086,0.025822,0.145322,0.022760,0.303220,1.349309,0.333298,1.125981,5.151840,0.840320,-7.960436,-31.592042,-8.959037,0.141360,-0.031985,0.000000,0.544395,-0.120316,-0.000000
0.260000,-2.019798,-1.371979,-1.428842,0.028907,0.159066,0.026133,0.314165,1.399261,0.341262,1.054320,4.833982,0.750603,-8.059152,-32.558930,-9.267529,0.146636,-0.033167,0.000000,0.510259,-0.112630,-0.000000
0.270000,-2.019493,-1.370318,-1.428563,0.032100,0.173295,0.029582,0.324304,1.445960,0.348300,0.973624,4.504449,0.656531,-8.065497,-33.312972,-9.541607,0.151561,-0.034262,0.000000,0.474765,-0.103951,0.000000
0.280000,-2.019155,-1.368512,-1.428250,0.035391,0.187974,0.033096,0.333638,1.489329,0.354384,0.893283,4.168399,0.559873,-7.990102,-33.863879,-9.785222,0.156128,-0.035270,0.000000,0.438484,-0.095267,0.000000
0.290000,-2.018784,-1.366557,-1.427901,0.038770,0.203070,0.036666,0.342174,1.529313,0.359490,0.814059,3.827816,0.460915,-7.843601,-34.221365,-10.002325,0.160329,-0.036191,0.000000,0.401642,-0.086664,0.000000
0.300000,-2.018380,-1.364449,-1.427516,0.042232,0.218549,0.040283,0.349925,1.565876,0.363596,0.736612,3.484584,0.359902,-7.636626,-34.395142,-10.196868,0.164160,-0.037026,0.000000,0.364451,-0.078215,-0.000000
0.310000,-2.017940,-1.362184,-1.427095,0.045766,0.234376,0.043934,0.356936,1.599003,0.366696,0.663558,3.140672,0.258320,-7.431961,-34.399435,-10.405143,0.167618,-0.037780,0.000000,0.327151,-0.070202,-0.000000
0.320000,-2.017464,-1.359760,-1.426637,0.049367,0.250518,0.047613,0.363204,1.628692,0.368756,0.590453,2.797347,0.153305,-7.181701,-34.238892,-10.594801,0.170703,-0.038451,0.000000,0.289839,-0.062154,-0.000000
0.330000,-2.016952,-1.357173,-1.426143,0.053027,0.266939,0.051306,0.368754,1.654958,0.369756,0.520061,2.456413,0.046486,-6.890095,-33.922670,-10.765831,0.173416,-0.039042,0.000000,0.252738,-0.054370,-0.000000
0.340000,-2.016403,-1.354421,-1.425611,0.056740,0.283606,0.055004,0.373616,1.677833,0.369680,0.452775,2.119382,-0.061950,-6.561388,-33.459930,-10.918225,0.175759,-0.039556,0.000000,0.216015,-0.046894,0.000000
0.350000,-2.015817,-1.351500,-1.425043,0.060498,0.300484,0.058696,0.377821,1.697364,0.368512,0.388943,1.787672,-0.171816,-6.199827,-32.859832,-11.051974,0.177738,-0.039996,0.000000,0.179829,-0.039766,0.000000
0.360000,-2.015193,-1.348410,-1.424437,0.064294,0.317542,0.062370,0.381412,1.713608,0.366248,0.329342,1.462477,-0.282148,-5.821483,-32.128110,-11.186756,0.179358,-0.040366,0.000000,0.144328,-0.033073,0.000000
0.370000,-2.014531,-1.345149,-1.423795,0.068124,0.334746,0.066017,0.384421,1.726640,0.362865,0.273127,1.145352,-0.394602,-5.417332,-31.277768,-11.300464,0.180627,-0.040669,0.000000,0.109651,-0.026724,-0.000000
0.380000,-2.013831,-1.341715,-1.423117,0.071981,0.352064,0.069624,0.386889,1.736545,0.358353,0.221072,0.837285,-0.508079,-4.990172,-30.318385,-11.390679,0.181554,-0.040911,0.000000,0.075926,-0.020806,0.000000
0.390000,-2.013091,-1.338107,-1.422403,0.075860,0.369467,0.073180,0.388857,1.743419,0.352701,0.173391,0.539316,-0.622330,-4.542803,-29.259540,-11.454981,0.182149,-0.041094,0.000000,0.043272,-0.015344,0.000000
0.400000,-2.012313,-1.334326,-1.421654,0.079756,0.386923,0.076674,0.390372,1.747368,0.345904,0.130274,0.252394,-0.737084,-4.078024,-28.110811,-11.490952,0.182424,-0.041224,0.000000,0.011797,-0.010360,0.000000
0.410000,-2.011496,-1.330369,-1.420870,0.083666,0.404405,0.080094,0.391479,1.748507,0.337960,0.091982,-0.022555,-0.851952,-3.601229,-26.883724,-11.498538,0.182390,-0.041306,0.000000,-0.018388,-0.005884,-0.000000
0.420000,-2.010640,-1.326237,-1.420052,0.087585,0.421884,0.083429,0.392227,1.746959,0.328865,0.058405,-0.284957,-0.966837,-3.112304,-25.585673,-11.472663,0.182060,-0.041346,0.000000,-0.047217,-0.001906,0.000000
0.430000,-2.009745,-1.321931,-1.419202,0.091509,0.439335,0.086668,0.392664,1.742853,0.318624,0.029768,-0.534063,-1.081285,-2.613731,-24.225998,-11.410617,0.181450,-0.041347,0.000000,-0.074598,0.001548,0.000000
0.440000,-2.008810,-1.317451,-1.418319,0.095437,0.456733,0.089798,0.392839,1.736324,0.307243,0.006155,-0.769303,-1.194920,-2.107991,-22.814040,-11.309690,0.180573,-0.041316,0.000000,-0.100460,0.004469,-0.000000
0.450000,-2.007836,-1.312797,-1.417406,0.099365,0.474054,0.092809,0.392804,1.727514,0.294730,-0.012376,-0.990201,-1.307340,-1.597566,-21.359139,-11.167175,0.179446,-0.041258,0.000000,-0.124742,0.006849,-0.000000
0.460000,-2.006823,-1.307970,-1.416463,0.103293,0.491276,0.095689,0.392610,1.716573,0.281096,-0.025697,-1.196005,-1.418602,-1.087258,-19.879959,-10.968094,0.178084,-0.041179,0.000000,-0.147363,0.008676,-0.000000
0.470000,-2.005770,-1.302972,-1.415493,0.107217,0.508379,0.098427,0.392307,1.703644,0.266365,-0.034018,-1.387299,-1.527098,-0.576943,-18.375376,-10.723506,0.176504,-0.041084,0.000000,-0.168351,0.009968,-0.000000
0.480000,-2.004678,-1.297803,-1.414495,0.111139,0.525343,0.101013,0.391947,1.688878,0.250563,-0.037244,-1.563455,-1.632916,-0.068819,-16.853587,-10.432204,0.174723,-0.040978,0.000000,-0.187641,0.010716,-0.000000
0.490000,-2.003547,-1.292466,-1.413473,0.115056,0.542151,0.103435,0.391579,1.672426,0.233718,-0.035409,-1.724341,-1.735582,0.434918,-15.322792,-10.092980,0.172757,-0.040868,0.000000,-0.205211,0.010925,-0.000000
0.500000,-2.002377,-1.286961,-1.412427,0.118970,0.558786,0.105684,0.391255,1.654442,0.215863,-0.028567,-1.869908,-1.834612,0.932069,-13.791190,-9.704627,0.170625,-0.040758,0.000000,-0.221049,0.010602,0.000000
0.510000,-2.001168,-1.281290,-1.411360,0.122882,0.575235,0.107749,0.391026,1.635085,0.197031,-0.016642,-1.999569,-1.930288,1.416539,-12.282655,-9.246218,0.168343,-0.040654,0.000000,-0.235103,0.009743,-0.000000
0.520000,-1.999919,-1.275457,-1.410273,0.126791,0.591484,0.109622,0.390938,1.614501,0.177274,-0.000097,-2.114907,-2.020253,1.890506,-10.787791,-8.738679,0.165928,-0.040562,0.000000,-0.247497,0.008391,0.000000
0.530000,-1.998632,-1.269461,-1.409168,0.130701,0.607521,0.111292,0.391040,1.592837,0.156643,0.021127,-2.215391,-2.104902,2.352251,-9.312876,-8.183217,0.163398,-0.040486,0.000000,-0.258193,0.006545,-0.000000
0.540000,-1.997305,-1.263307,-1.408048,0.134613,0.623337,0.112752,0.391376,1.570241,0.135195,0.046901,-2.301252,-2.183761,2.800055,-7.864192,-7.581039,0.160770,-0.040431,0.000000,-0.267215,0.004221,-0.000000
0.550000,-1.995940,-1.256995,-1.406914,0.138529,0.638923,0.113993,0.391992,1.546860,0.112989,0.077076,-2.372783,-2.256371,3.232197,-6.448016,-6.933353,0.158059,-0.040402,0.000000,-0.274595,0.001437,-0.000000
0.560000,-1.994535,-1.250529,-1.405769,0.142454,0.654272,0.115010,0.392934,1.522841,0.090082,0.111686,-2.429568,-2.323032,3.641933,-5.090154,-6.222382,0.155284,-0.040404,0.000000,-0.280310,-0.001804,-0.000000
0.570000,-1.993091,-1.243911,-1.404614,0.146389,0.669378,0.115793,0.394239,1.498313,0.066553,0.150078,-2.473857,-2.381530,4.033184,-3.774969,-5.470641,0.152458,-0.040440,0.000000,-0.284564,-0.005440,0.000000
0.580000,-1.991607,-1.237143,-1.403454,0.150340,0.684237,0.116339,0.395948,1.473407,0.042477,0.192285,-2.505223,-2.432321,4.404845,-2.506349,-4.681662,0.149598,-0.040515,0.000000,-0.287339,-0.009469,-0.000000
0.590000,-1.990084,-1.230227,-1.402289,0.154310,0.698846,0.116641,0.398097,1.448250,0.017933,0.238106,-2.524152,-2.475051,4.755812,-1.288182,-3.858976,0.146716,-0.040633,0.000000,-0.288695,-0.013866,-0.000000
0.600000,-1.988521,-1.223166,-1.401122,0.158303,0.713202,0.116696,0.400721,1.422963,-0.006996,0.287328,-2.531168,-2.509400,5.084981,-0.124359,-3.006115,0.143828,-0.040797,0.000000,-0.288697,-0.018609,0.000000
0.610000,-1.986918,-1.215964,-1.399955,0.162326,0.727305,0.116500,0.403856,1.397673,-0.032231,0.339927,-2.526047,-2.535556,5.386251,0.961384,-2.114691,0.140947,-0.041010,0.000000,-0.287346,-0.023689,-0.000000
0.620000,-1.985274,-1.208621,-1.398792,0.166382,0.741155,0.116051,0.407530,1.372478,-0.057677,0.395198,-2.511253,-2.552154,5.664127,1.987437,-1.201615,0.138085,-0.041276,0.000000,-0.284885,-0.029039,-0.000000
0.630000,-1.983590,-1.201141,-1.397635,0.170478,0.754755,0.115346,0.411769,1.347481,-0.083243,0.453130,-2.486502,-2.559533,5.918115,2.952344,-0.271877,0.135253,-0.041597,0.000000,-0.281312,-0.034654,0.000000
0.640000,-1.981864,-1.193527,-1.396486,0.174619,0.768106,0.114386,0.416600,1.322779,-0.108837,0.513479,-2.452415,-2.557552,6.147722,3.854647,0.669531,0.132463,-0.041976,0.000000,-0.276703,-0.040508,-0.000000
0.650000,-1.980097,-1.185780,-1.395348,0.178812,0.781212,0.113170,0.422046,1.298462,-0.134363,0.576001,-2.409623,-2.546120,6.352456,4.692888,1.617617,0.129723,-0.042415,0.000000,-0.271139,-0.046577,0.000000
0.660000,-1.978288,-1.177904,-1.394224,0.183062,0.794076,0.111699,0.428128,1.274620,-0.159728,0.640596,-2.358122,-2.525270,6.527971,5.449100,2.569308,0.127043,-0.042916,0.000000,-0.264639,-0.052849,0.000000
0.670000,-1.976436,-1.169899,-1.393115,0.187377,0.806706,0.109976,0.434863,1.251323,-0.184837,0.706648,-2.300120,-2.494831,6.678099,6.140355,3.517460,0.124432,-0.043481,0.000000,-0.257432,-0.059266,0.000000
0.680000,-1.974540,-1.161770,-1.392025,0.191762,0.819105,0.108004,0.442266,1.228640,-0.209593,0.774074,-2.235529,-2.454950,6.802821,6.767219,4.456850,0.121897,-0.044111,0.000000,-0.249528,-0.065820,0.000000
0.690000,-1.972600,-1.153518,-1.390956,0.196224,0.831281,0.105786,0.450349,1.206633,-0.233905,0.842620,-2.164989,-2.405741,6.902115,7.330255,5.382250,0.119444,-0.044808,0.000000,-0.241004,-0.072487,-0.000000
0.700000,-1.970615,-1.145145,-1.389910,0.200771,0.843240,0.103327,0.459121,1.185358,-0.257678,0.912031,-2.089135,-2.347369,6.975960,7.830026,6.288434,0.117079,-0.045572,0.000000,-0.231937,-0.079245,0.000000
0.710000,-1.968585,-1.136654,-1.388890,0.205409,0.854990,0.100634,0.468592,1.164870,-0.280819,0.982136,-2.008181,-2.279754,7.022253,8.256582,7.162611,0.114807,-0.046404,0.000000,-0.222356,-0.086081,0.000000
0.720000,-1.966507,-1.128046,-1.387898,0.210145,0.866540,0.097713,0.478765,1.145207,-0.303244,1.052485,-1.923737,-2.203875,7.043312,8.622288,8.008047,0.112633,-0.047305,0.000000,-0.212439,-0.092951,0.000000
0.730000,-1.964381,-1.119324,-1.386937,0.214987,0.877897,0.094572,0.489642,1.126406,-0.324869,1.122919,-1.835932,-2.119703,7.039370,8.928998,8.820445,0.110560,-0.048275,0.000000,-0.202204,-0.099845,0.000000
0.740000,-1.962207,-1.110489,-1.386008,0.219941,0.889071,0.091219,0.501223,1.108498,-0.345612,1.193190,-1.745347,-2.027591,7.010661,9.178561,9.595505,0.108590,-0.049314,0.000000,-0.191716,-0.106743,-0.000000
0.750000,-1.959982,-1.101543,-1.385113,0.225014,0.900070,0.087663,0.513505,1.091507,-0.365395,1.263051,-1.652545,-1.927932,6.957420,9.372830,10.328927,0.106726,-0.050423,0.000000,-0.181038,-0.113625,0.000000
0.760000,-1.957706,-1.092488,-1.384255,0.230213,0.910904,0.083914,0.526482,1.075454,-0.384141,1.332276,-1.557919,-1.820608,6.879398,9.509867,11.002336,0.104970,-0.051600,0.000000,-0.170207,-0.120477,-0.000000
0.770000,-1.955377,-1.083325,-1.383435,0.235546,0.921583,0.079984,0.540147,1.060352,-0.401786,1.400580,-1.462349,-1.707419,6.777370,9.595776,11.627233,0.103322,-0.052845,0.000000,-0.159328,-0.127269,-0.000000
0.780000,-1.952995,-1.074057,-1.382656,0.241018,0.932115,0.075882,0.554490,1.046209,-0.418269,1.467745,-1.366166,-1.588234,6.651631,9.632873,12.201043,0.101783,-0.054158,0.000000,-0.148429,-0.133988,0.000000
0.790000,-1.950557,-1.064684,-1.381918,0.246638,0.942510,0.071622,0.569497,1.033029,-0.433532,1.533535,-1.269846,-1.463577,6.502473,9.623474,12.721192,0.100353,-0.055539,0.000000,-0.137558,-0.140616,0.000000
0.800000,-1.948061,-1.055207,-1.381224,0.252410,0.952778,0.067216,0.585155,1.020811,-0.447524,1.597717,-1.173844,-1.333997,6.330190,9.569895,13.185103,0.099032,-0.056985,0.000000,-0.126760,-0.147136,0.000000
0.810000,-1.945508,-1.045628,-1.380574,0.258343,0.962929,0.062676,0.601445,1.009549,-0.460191,1.660048,-1.078655,-1.199415,6.135434,9.476148,13.573656,0.097818,-0.058495,0.000000,-0.116077,-0.153532,0.000000
0.820000,-1.942894,-1.035949,-1.379971,0.264441,0.972973,0.058017,0.618349,0.999234,-0.471500,1.720335,-0.984529,-1.061983,5.918095,9.342644,13.902847,0.096710,-0.060070,0.000000,-0.105548,-0.159780,-0.000000
0.830000,-1.940218,-1.026169,-1.379414,0.270712,0.982917,0.053251,0.635845,0.989854,-0.481420,1.778336,-0.891928,-0.921558,5.678423,9.171490,14.172128,0.095706,-0.061706,0.000000,-0.095209,-0.165867,-0.000000
0.840000,-1.937479,-1.016291,-1.378906,0.277160,0.992773,0.048393,0.653908,0.981390,-0.489924,1.833829,-0.801218,-0.778742,5.416667,8.964794,14.380948,0.094805,-0.063402,0.000000,-0.085094,-0.171773,-0.000000
0.850000,-1.934675,-1.006314,-1.378447,0.283792,1.002548,0.043457,0.672512,0.973822,-0.496989,1.886596,-0.712743,-0.634143,5.133077,8.724663,14.528760,0.094003,-0.065156,0.000000,-0.075233,-0.177480,0.000000
0.860000,-1.931803,-0.996240,-1.378037,0.290612,1.012252,0.038458,0.691630,0.967124,-0.502596,1.936413,-0.627011,-0.487772,4.828063,8.457807,14.599854,0.093299,-0.066966,0.000000,-0.065668,-0.182974,-0.000000
0.870000,-1.928862,-0.986069,-1.377678,0.297626,1.021893,0.033410,0.711230,0.961272,-0.506743,1.983079,-0.543892,-0.341670,4.501693,8.161168,14.610698,0.092689,-0.068830,0.000000,-0.056397,-0.188226,-0.000000
0.880000,-1.925850,-0.975802,-1.377369,0.304838,1.031480,0.028328,0.731280,0.956236,-0.509430,2.026376,-0.463882,-0.195755,4.154198,7.836290,14.562597,0.092170,-0.070746,0.000000,-0.047459,-0.193223,0.000000
0.890000,-1.922764,-0.965440,-1.377111,0.312253,1.041021,0.023226,0.751745,0.951983,-0.510661,2.066093,-0.387255,-0.050610,3.785806,7.484717,14.456859,0.091739,-0.072710,0.000000,-0.038877,-0.197942,-0.000000
0.900000,-1.919604,-0.954982,-1.376905,0.319874,1.050522,0.018119,0.772589,0.948479,-0.510447,2.102023,-0.314271,0.093195,3.396748,7.107993,14.294790,0.091391,-0.074721,0.000000,-0.030675,-0.202365,-0.000000
0.910000,-1.916366,-0.944429,-1.376749,0.327706,1.059993,0.013022,0.793773,0.945683,-0.508799,2.134001,-0.245355,0.235535,2.986219,6.712239,14.066780,0.091124,-0.076774,0.000000,-0.022888,-0.206476,-0.000000
0.920000,-1.913049,-0.933782,-1.376644,0.335751,1.069438,0.007948,0.815255,0.943558,-0.505745,2.161727,-0.180306,0.374843,2.555610,6.293863,13.786390,0.090932,-0.078866,0.000000,-0.015503,-0.210237,-0.000000
0.930000,-1.909650,-0.923041,-1.376590,0.344012,1.078866,0.002911,0.836993,0.942062,-0.501312,2.185048,-0.119550,0.511097,2.105277,5.853847,13.456265,0.090812,-0.080995,0.000000,-0.008557,-0.213634,0.000000
0.940000,-1.906168,-0.912205,-1.376586,0.352491,1.088282,-0.002074,0.858941,0.941152,-0.495534,2.203768,-0.063298,0.643812,1.635575,5.393174,13.079048,0.090759,-0.083155,0.000000,-0.002068,-0.216644,0.000000
0.950000,-1.902600,-0.901275,-1.376631,0.361191,1.097691,-0.006995,0.881052,0.940781,-0.488449,2.217696,-0.011752,0.772530,1.146862,4.912830,12.657384,0.090769,-0.085344,0.000000,0.003944,-0.219243,-0.000000
0.960000,-1.898943,-0.890251,-1.376725,0.370113,1.107099,-0.011839,0.903279,0.940900,-0.480096,2.226749,0.034803,0.897025,0.636814,4.416148,12.188729,0.090836,-0.087557,0.000000,0.009453,-0.221420,0.000000
0.970000,-1.895197,-0.879133,-1.376868,0.379257,1.116510,-0.016593,0.925570,0.941460,-0.470525,2.230492,0.076406,1.016407,0.108795,3.901473,11.681550,0.090956,-0.089789,0.000000,0.014460,-0.223122,0.000000
0.980000,-1.891358,-0.867921,-1.377057,0.388624,1.125929,-0.021245,0.947871,0.942410,-0.459786,2.228867,0.112775,1.130539,-0.436510,3.369500,11.139125,0.091124,-0.092036,0.000000,0.018936,-0.224338,-0.000000
0.990000,-1.887424,-0.856615,-1.377292,0.398214,1.135360,-0.025785,0.970129,0.943697,-0.447933,2.221706,0.143740,1.239083,-0.998419,2.820925,10.564734,0.091333,-0.094293,0.000000,0.022864,-0.225045,0.000000
1.000000,-1.883393,-0.845214,-1.377572,0.408026,1.144804,-0.030200,0.992286,0.945267,-0.435024,2.208846,0.169140,1.341738,-1.576245,2.256444,9.961656,0.091579,-0.096554,0.000000,0.026227,-0.225217,0.000000
1.010000,-1.879262,-0.833718,-1.377896,0.418059,1.154266,-0.034482,1.014288,0.947062,-0.421119,2.190295,0.188850,1.438209,-2.173452,1.675953,9.333756,0.091856,-0.098815,0.000000,0.029009,-0.224846,-0.000000
1.020000,-1.875031,-0.822128,-1.378261,0.428311,1.163746,-0.038620,1.036072,0.949024,-0.406281,2.165515,0.202647,1.528313,-2.784701,1.081044,8.683656,0.092157,-0.101068,0.000000,0.031186,-0.223872,-0.000000
1.030000,-1.870695,-0.810443,-1.378667,0.438780,1.173246,-0.042605,1.057578,0.951094,-0.390575,2.134558,0.210426,1.611818,-3.408799,0.472511,8.014562,0.092478,-0.103309,0.000000,0.032745,-0.222287,-0.000000
1.040000,-1.866254,-0.798663,-1.379113,0.449462,1.182768,-0.046429,1.078742,0.953212,-0.374067,2.097300,0.212054,1.688551,-4.044553,-0.148852,7.329681,0.092810,-0.105531,0.000000,0.033668,-0.220071,-0.000000
1.050000,-1.861705,-0.786788,-1.379595,0.460353,1.192311,-0.050084,1.099502,0.955315,-0.356827,2.053632,0.207408,1.758370,-4.690773,-0.782252,6.632222,0.093149,-0.107727,0.000000,0.033939,-0.217200,-0.000000
1.060000,-1.857047,-0.774817,-1.380114,0.471450,1.201874,-0.053563,1.119795,0.957340,-0.338925,2.003646,0.196511,1.820964,-5.351120,-1.430419,5.930465,0.093487,-0.109892,0.000000,0.033554,-0.213672,0.000000
1.070000,-1.852276,-0.762750,-1.380666,0.482747,1.211457,-0.056860,1.139553,0.959223,-0.320431,1.946801,0.178924,1.876730,-6.018953,-2.088605,5.221922,0.093818,-0.112017,0.000000,0.032469,-0.209426,0.000000
1.080000,-1.847391,-0.750588,-1.381250,0.494239,1.221058,-0.059970,1.158709,0.960897,-0.301414,1.883248,0.154710,1.925388,-6.692485,-2.755585,4.509179,0.094134,-0.114096,0.000000,0.030683,-0.204464,0.000000
1.090000,-1.842390,-0.738329,-1.381865,0.505919,1.230674,-0.062887,1.177196,0.962295,-0.281947,1.812939,0.123787,1.966908,-7.369929,-3.430133,3.794823,0.094429,-0.116122,0.000000,0.028184,-0.198770,0.000000
1.100000,-1.837272,-0.725974,-1.382508,0.517781,1.240303,-0.065607,1.194945,0.963350,-0.262100,1.735843,0.086086,2.001288,-8.049498,-4.111025,3.081439,0.094695,-0.118087,0.000000,0.024957,-0.192330,-0.000000
1.110000,-1.832034,-0.713523,-1.383176,0.529816,1.249940,-0.068128,1.211892,0.963996,-0.241948,1.652125,0.041742,2.028261,-8.733884,-4.801904,2.378888,0.094926,-0.119984,0.000000,0.021009,-0.185145,0.000000
1.120000,-1.826675,-0.700976,-1.383869,0.542016,1.259581,-0.070445,1.227965,0.964162,-0.221558,1.561371,-0.009746,2.048558,-9.416274,-5.496079,1.681590,0.095113,-0.121804,0.000000,0.016291,-0.177172,-0.000000
1.130000,-1.821193,-0.688332,-1.384585,0.554372,1.269221,-0.072558,1.243096,0.963778,-0.201000,1.463814,-0.068184,2.061916,-10.094332,-6.191732,0.991241,0.095249,-0.123541,0.000000,0.010813,-0.168420,-0.000000
1.140000,-1.815587,-0.675591,-1.385320,0.566874,1.278854,-0.074465,1.257219,0.962775,-0.180343,1.359507,-0.133579,2.068412,-10.765722,-6.887039,0.309537,0.095327,-0.125185,0.000000,0.004568,-0.158885,0.000000
1.150000,-1.809855,-0.662754,-1.386073,0.579512,1.288474,-0.076165,1.270264,0.961083,-0.159654,1.248529,-0.205918,2.068141,-11.428111,-7.580181,-0.361827,0.095338,-0.126730,0.000000,-0.002447,-0.148563,-0.000000
1.160000,-1.803997,-0.649822,-1.386842,0.592276,1.298073,-0.077658,1.282169,0.958635,-0.139005,1.131099,-0.284993,2.060950,-12.082112,-8.273801,-1.014435,0.095275,-0.128168,0.000000,-0.010221,-0.137466,0.000000
1.170000,-1.798010,-0.636793,-1.387626,0.605152,1.307644,-0.078945,1.292865,0.955360,-0.118457,1.007066,-0.371173,2.047596,-12.722078,-8.961067,-1.654136,0.095131,-0.129489,0.000000,-0.018789,-0.125578,-0.000000
1.180000,-1.791893,-0.623669,-1.388421,0.618129,1.317178,-0.080028,1.302289,0.951189,-0.098074,0.876714,-0.464185,2.027913,-13.345315,-9.639610,-2.280057,0.094897,-0.130688,0.000000,-0.028132,-0.112916,0.000000
1.190000,-1.785647,-0.610450,-1.389226,0.631193,1.326665,-0.080908,1.310378,0.946054,-0.077919,0.740224,-0.563929,2.002043,-13.949126,-10.307062,-2.891326,0.094566,-0.131755,0.000000,-0.038246,-0.099492,0.000000
1.200000,-1.779269,-0.597136,-1.390038,0.644332,1.336095,-0.081587,1.317073,0.939888,-0.058053,0.597805,-0.670281,1.970138,-14.530815,-10.961057,-3.487070,0.094129,-0.132684,0.000000,-0.049121,-0.085320,-0.000000
1.210000,-1.772760,-0.583728,-1.390857,0.657530,1.345459,-0.082070,1.322316,0.932628,-0.038538,0.449705,-0.783001,1.932207,-15.088056,-11.601655,-4.062653,0.093581,-0.133467,0.000000,-0.060740,-0.070419,-0.000000
1.220000,-1.766118,-0.570227,-1.391679,0.670773,1.354744,-0.082359,1.326049,0.924207,-0.019428,0.296152,-0.902144,1.888773,-15.617736,-12.223761,-4.621428,0.092912,-0.134096,0.000000,-0.073108,-0.054813,-0.000000
1.230000,-1.759344,-0.556633,-1.392503,0.684045,1.363939,-0.082460,1.328222,0.914565,-0.000781,0.137451,-1.027405,1.839836,-16.117114,-12.824710,-5.162983,0.092116,-0.134566,0.000000,-0.086200,-0.038526,0.000000
1.240000,-1.752437,-0.542949,-1.393328,0.697332,1.373031,-0.082377,1.328782,0.903640,0.017351,-0.026080,-1.158559,1.785572,-16.583449,-13.401838,-5.686909,0.091186,-0.134868,0.000000,-0.099995,-0.021589,-0.000000
1.250000,-1.745398,-0.529173,-1.394150,0.710616,1.382007,-0.082115,1.327685,0.891375,0.034914,-0.194098,-1.295354,1.726158,-17.013998,-13.952478,-6.192792,0.090114,-0.134997,0.000000,-0.114469,-0.004037,0.000000
1.260000,-1.738225,-0.515309,-1.394969,0.723880,1.390854,-0.081680,1.324885,0.877714,0.051858,-0.366348,-1.437542,1.661794,-17.403079,-14.473206,-6.680627,0.088894,-0.134947,0.000000,-0.129598,0.014104,-0.000000
1.270000,-1.730920,-0.501357,-1.395783,0.737108,1.399557,-0.081080,1.320346,0.862607,0.068134,-0.542155,-1.584746,1.592627,-17.751251,-14.962208,-7.149549,0.087520,-0.134712,0.000000,-0.145345,0.032765,-0.000000
1.280000,-1.723483,-0.487318,-1.396590,0.750281,1.408101,-0.080320,1.314031,0.846004,0.083695,-0.721229,-1.736671,1.518867,-18.056132,-15.416914,-7.599096,0.085985,-0.134288,0.000000,-0.161678,0.051911,-0.000000
1.290000,-1.715915,-0.473195,-1.397389,0.763382,1.416471,-0.079409,1.305912,0.827859,0.098496,-0.903125,-1.892962,1.440711,-18.315341,-15.834750,-8.028807,0.084285,-0.133669,0.000000,-0.178558,0.071494,0.000000
1.300000,-1.708216,-0.458989,-1.398178,0.776393,1.424653,-0.078353,1.295961,0.808131,0.112495,-1.087375,-2.053235,1.358359,-18.526496,-16.213146,-8.438221,0.082413,-0.132851,0.000000,-0.195943,0.091460,0.000000
1.310000,-1.700387,-0.444703,-1.398956,0.789295,1.432629,-0.077161,1.284155,0.786780,0.125652,-1.273746,-2.217262,1.272174,-18.680674,-16.545056,-8.830865,0.080364,-0.131832,0.000000,-0.213802,0.111774,-0.000000
1.320000,-1.692430,-0.430338,-1.399721,0.802070,1.440383,-0.075843,1.270482,0.763776,0.137926,-1.461108,-2.384189,1.181992,-18.782836,-16.832929,-9.201802,0.078135,-0.130608,0.000000,-0.232047,0.132317,-0.000000
1.330000,-1.684346,-0.415896,-1.400472,0.814699,1.447899,-0.074406,1.254931,0.739088,0.149280,-1.649224,-2.553767,1.088213,-18.831402,-17.074739,-9.550084,0.075722,-0.129177,0.000000,-0.250642,0.153052,0.000000
1.340000,-1.676137,-0.401380,-1.401209,0.827162,1.455159,-0.072860,1.237497,0.712693,0.159679,-1.837552,-2.725523,0.991069,-18.824789,-17.268462,-9.874760,0.073121,-0.127538,0.000000,-0.269527,0.173911,-0.000000
1.350000,-1.667804,-0.386794,-1.401929,0.839442,1.462147,-0.071216,1.218181,0.684572,0.169091,-2.025531,-2.898969,0.890800,-18.761419,-17.412073,-10.174883,0.070331,-0.125689,0.000000,-0.288642,0.194822,0.000000
1.360000,-1.659349,-0.372138,-1.402633,0.851520,1.468845,-0.069482,1.196985,0.654706,0.177487,-2.212977,-3.073912,0.787856,-18.629820,-17.495439,-10.454542,0.067348,-0.123631,0.000000,-0.307952,0.215747,0.000000
1.370000,-1.650774,-0.357418,-1.403318,0.863376,1.475235,-0.067670,1.173927,0.623092,0.184839,-2.398373,-3.249062,0.682024,-18.439513,-17.525637,-10.707131,0.064171,-0.121365,0.000000,-0.327314,0.236522,0.000000
1.380000,-1.642082,-0.342635,-1.403986,0.874992,1.481301,-0.065789,1.149025,0.589725,0.191120,-2.581570,-3.424244,0.573809,-18.190128,-17.501636,-10.931085,0.060801,-0.118892,0.000000,-0.346689,0.257108,0.000000
1.390000,-1.633275,-0.327793,-1.404634,0.886350,1.487024,-0.063851,1.122304,0.554608,0.196308,-2.761977,-3.598911,0.463503,-17.881296,-17.422403,-11.124837,0.057238,-0.116214,0.000000,-0.366004,0.277426,-0.000000
1.400000,-1.624356,-0.312896,-1.405263,0.897432,1.492387,-0.061866,1.093797,0.517750,0.200384,-2.938997,-3.772505,0.351418,-17.512648,-17.286907,-11.286821,0.053482,-0.113335,0.000000,-0.385181,0.297392,0.000000
1.410000,-1.615327,-0.297946,-1.405871,0.908221,1.497373,-0.059847,1.063533,0.479159,0.203333,-3.112518,-3.944898,0.237968,-17.071480,-17.083013,-11.417744,0.049534,-0.110259,0.000000,-0.404185,0.316974,-0.000000
1.420000,-1.606193,-0.282949,-1.406459,0.918697,1.501965,-0.057804,1.031562,0.438860,0.205140,-3.280780,-4.114471,0.123282,-16.571267,-16.822153,-11.513487,0.045399,-0.106990,0.000000,-0.422828,0.335971,-0.000000
1.430000,-1.596955,-0.267909,-1.407027,0.928846,1.506145,-0.055748,0.997935,0.396879,0.205796,-3.443750,-4.281152,0.007821,-16.013149,-16.504654,-11.572208,0.041079,-0.103534,0.000000,-0.441078,0.354354,-0.000000
1.440000,-1.587617,-0.252828,-1.407574,0.938651,1.509897,-0.053692,0.962706,0.353248,0.205295,-3.600854,-4.444376,-0.108033,-15.398266,-16.130843,-11.592059,0.036579,-0.099899,0.000000,-0.458854,0.372043,-0.000000
1.450000,-1.578183,-0.237712,-1.408101,0.948095,1.513204,-0.051646,0.925939,0.308005,0.203635,-3.751530,-4.603582,-0.223884,-14.727759,-15.701048,-11.571199,0.031904,-0.096091,0.000000,-0.476073,0.388958,0.000000
1.460000,-1.568656,-0.222565,-1.408607,0.957165,1.516052,-0.049623,0.887694,0.261187,0.200817,-3.895742,-4.758709,-0.339477,-13.989771,-15.203024,-11.503689,0.027059,-0.092118,0.000000,-0.492708,0.405076,-0.000000
1.470000,-1.559041,-0.207393,-1.409094,0.965845,1.518423,-0.047633,0.848050,0.212848,0.196848,-4.031733,-4.908025,-0.453994,-13.200031,-14.651211,-11.392278,0.022052,-0.087990,0.000000,-0.508554,0.420191,0.000000
1.480000,-1.549341,-0.192199,-1.409560,0.974121,1.520304,-0.045689,0.807086,0.163045,0.191741,-4.159580,-5.051561,-0.567172,-12.361273,-14.047477,-11.235623,0.016891,-0.083716,0.000000,-0.523597,0.434295,0.000000
1.490000,-1.539560,-0.176988,-1.410008,0.981982,1.521679,-0.043802,0.764887,0.111838,0.185511,-4.278804,-5.188807,-0.678551,-11.476228,-13.393690,-11.032380,0.011583,-0.079306,0.000000,-0.537764,0.447322,0.000000
1.500000,-1.529702,-0.161767,-1.410437,0.989415,1.522536,-0.041983,0.721540,0.059292,0.178178,-4.388959,-5.319274,-0.787660,-10.547628,-12.691717,-10.781205,0.006139,-0.074772,0.000000,-0.550987,0.459213,-0.000000
1.510000,-1.519773,-0.146539,-1.410848,0.996410,1.522861,-0.040242,0.677135,0.005472,0.169762,-4.490015,-5.442907,-0.894460,-9.568242,-11.932827,-10.469414,0.000566,-0.070125,0.000000,-0.563249,0.469956,-0.000000
1.520000,-1.509776,-0.131311,-1.411242,1.002955,1.522642,-0.038591,0.631773,-0.049540,0.160300,-4.580646,-5.558260,-0.997390,-8.551986,-11.130783,-10.108393,-0.005123,-0.065377,0.000000,-0.574389,0.479399,-0.000000
1.530000,-1.499715,-0.116088,-1.411620,1.009042,1.521867,-0.037040,0.585556,-0.105665,0.149827,-4.660945,-5.665389,-1.096464,-7.502812,-10.288752,-9.698186,-0.010918,-0.060541,0.000000,-0.584408,0.487550,-0.000000
1.540000,-1.489596,-0.100876,-1.411983,1.014664,1.520525,-0.035598,0.538590,-0.162819,0.138385,-4.730605,-5.763912,-1.191190,-6.424672,-9.409899,-9.238840,-0.016807,-0.055630,0.000000,-0.593265,0.494378,-0.000000
1.550000,-1.479424,-0.085680,-1.412332,1.019812,1.518607,-0.034275,0.490981,-0.220914,0.126020,-4.789356,-5.853475,-1.281077,-5.321520,-8.497390,-8.730399,-0.022779,-0.050657,0.000000,-0.600926,0.499857,-0.000000
1.560000,-1.469202,-0.070506,-1.412669,1.024482,1.516104,-0.033080,0.442838,-0.279860,0.112775,-4.837077,-5.933949,-1.366264,-4.194498,-7.549572,-8.157011,-0.028822,-0.045635,0.000000,-0.607382,0.503984,0.000000
1.570000,-1.458936,-0.055360,-1.412994,1.028667,1.513008,-0.032022,0.394277,-0.339561,0.098714,-4.873315,-6.004592,-1.444770,-3.050711,-6.575019,-7.536566,-0.034923,-0.040578,0.000000,-0.612576,0.506715,0.000000
1.580000,-1.448630,-0.040248,-1.413310,1.032366,1.509311,-0.031108,0.345411,-0.399919,0.083901,-4.898049,-6.065373,-1.516845,-1.894456,-5.577485,-6.871053,-0.041069,-0.035499,0.000000,-0.616518,0.508067,-0.000000
1.590000,-1.438290,-0.025175,-1.413617,1.035575,1.505007,-0.030346,0.296355,-0.460835,0.068400,-4.911177,-6.116078,-1.582048,-0.730029,-4.560725,-6.162466,-0.047249,-0.030412,0.000000,-0.619209,0.508047,0.000000
1.600000,-1.427920,-0.010149,-1.413917,1.038293,1.500092,-0.029742,0.247226,-0.522206,0.052284,-4.912637,-6.156536,-1.639957,0.438273,-3.528495,-5.412796,-0.053449,-0.025331,0.000000,-0.620657,0.506670,0.000000
1.610000,-1.417526,0.004824,-1.414212,1.040520,1.494562,-0.029302,0.198143,-0.583930,0.035620,-4.902228,-6.186548,-1.690812,1.601476,-2.486094,-4.607894,-0.059658,-0.020269,0.000000,-0.620869,0.503940,0.000000
1.620000,-1.407111,0.019740,-1.414504,1.042256,1.488413,-0.029031,0.149220,-0.645902,0.018495,-4.880413,-6.206161,-1.732719,2.760535,-1.435544,-3.767869,-0.065863,-0.015239,0.000000,-0.619892,0.499928,-0.000000
1.630000,-1.396682,0.034591,-1.414793,1.043505,1.481643,-0.028934,0.100573,-0.708018,0.000994,-4.847043,-6.215243,-1.766066,3.911727,-0.380410,-2.896688,-0.072052,-0.010253,0.000000,-0.617747,0.494649,0.000000
1.640000,-1.386243,0.049371,-1.415083,1.044269,1.474252,-0.029012,0.052317,-0.770172,-0.016797,-4.802217,-6.213766,-1.790562,5.051328,0.675740,-1.998320,-0.078214,-0.005324,0.000000,-0.614469,0.488145,-0.000000
1.650000,-1.375798,0.064074,-1.415374,1.044553,1.466240,-0.029270,0.004567,-0.832258,-0.034787,-4.746068,-6.201737,-1.805955,6.175614,1.729342,-1.076733,-0.084337,-0.000464,0.000000,-0.610102,0.480461,-0.000000
1.660000,-1.365353,0.078693,-1.415669,1.044362,1.457608,-0.029708,-0.042563,-0.894169,-0.052890,-4.678415,-6.178975,-1.812502,7.271952,2.771151,-0.124033,-0.090412,0.004315,0.000000,-0.604666,0.471609,-0.000000
1.670000,-1.354913,0.093224,-1.415969,1.043704,1.448358,-0.030328,-0.088965,-0.955803,-0.071005,-4.600303,-6.146091,-1.808919,8.346620,3.803974,0.842497,-0.096427,0.009003,0.000000,-0.598276,0.461729,-0.000000
1.680000,-1.344481,0.107658,-1.416276,1.042586,1.438493,-0.031128,-0.134534,-1.017057,-0.089036,-4.511564,-6.102935,-1.795624,9.396986,4.824941,1.817438,-0.102374,0.013590,0.000000,-0.590956,0.450836,-0.000000
1.690000,-1.334062,0.121991,-1.416592,1.041016,1.428018,-0.032108,-0.179162,-1.077828,-0.106885,-4.412453,-6.049641,-1.772560,10.420417,5.831181,2.795368,-0.108244,0.018064,0.000000,-0.582763,0.438986,0.000000
1.700000,-1.323662,0.136217,-1.416919,1.039006,1.416938,-0.033265,-0.222749,-1.138016,-0.124454,-4.303254,-5.986370,-1.739725,11.414281,6.819824,3.770867,-0.114027,0.022418,0.000000,-0.573753,0.426236,0.000000
1.710000,-1.313284,0.150328,-1.417258,1.036565,1.405260,-0.034596,-0.265191,-1.197520,-0.141649,-4.183910,-5.913033,-1.697316,12.366730,7.780952,4.742227,-0.119716,0.026642,0.000000,-0.563956,0.412609,0.000000
1.720000,-1.302932,0.164320,-1.417611,1.033706,1.392990,-0.036096,-0.306396,-1.256245,-0.158369,-4.055620,-5.830511,-1.645092,13.285475,8.719603,5.699861,-0.125304,0.030727,0.000000,-0.553501,0.398250,-0.000000
1.730000,-1.292611,0.178186,-1.417981,1.030442,1.380138,-0.037761,-0.346273,-1.314099,-0.174519,-3.918318,-5.738723,-1.583384,14.169014,9.633772,6.637894,-0.130784,0.034667,0.000000,-0.542410,0.383174,-0.000000
1.740000,-1.282325,0.191921,-1.418367,1.026785,1.366712,-0.039584,-0.384734,-1.370990,-0.190005,-3.772362,-5.637924,-1.512419,15.015842,10.521449,7.550451,-0.136150,0.038454,0.000000,-0.530740,0.367436,-0.000000
1.750000,-1.272077,0.205518,-1.418773,1.022752,1.352722,-0.041559,-0.421693,-1.426829,-0.204737,-3.618128,-5.528389,-1.432480,15.824457,11.380627,8.431657,-0.141397,0.042082,0.000000,-0.518543,0.351090,-0.000000
1.760000,-1.261871,0.218973,-1.419199,1.018357,1.338179,-0.043676,-0.457067,-1.481527,-0.218624,-3.455752,-5.410169,-1.343659,16.586939,12.203135,9.269303,-0.146519,0.045545,0.000000,-0.505852,0.334162,-0.000000
1.770000,-1.251711,0.232280,-1.419647,1.013616,1.323095,-0.045928,-0.490783,-1.535005,-0.231583,-3.286238,-5.284157,-1.246952,17.308985,12.993884,10.064623,-0.151512,0.048836,0.000000,-0.492762,0.316757,0.000000
1.780000,-1.241600,0.245434,-1.420118,1.008547,1.307483,-0.048305,-0.522768,-1.587184,-0.243537,-3.109709,-5.150402,-1.142524,17.989877,13.751620,10.812520,-0.156373,0.051952,0.000000,-0.479295,0.298895,-0.000000
1.790000,-1.231541,0.258428,-1.420613,1.003167,1.291356,-0.050795,-0.552955,-1.637988,-0.254410,-2.926580,-5.009239,-1.030877,18.628895,14.475090,11.507893,-0.161097,0.054886,0.000000,-0.465492,0.280618,0.000000
1.800000,-1.221537,0.271259,-1.421134,0.997494,1.274728,-0.053389,-0.581279,-1.687345,-0.264132,-2.737273,-4.861018,-0.912559,19.225322,15.163041,12.145643,-0.165682,0.057636,0.000000,-0.451393,0.261965,0.000000
1.810000,-1.211592,0.283921,-1.421681,0.991548,1.257614,-0.056074,-0.607680,-1.735185,-0.272634,-2.542125,-4.705933,-0.787551,19.776101,15.809982,12.704956,-0.170124,0.060197,0.000000,-0.437024,0.242967,-0.000000
1.820000,-1.201707,0.296410,-1.422256,0.985347,1.240030,-0.058838,-0.632104,-1.781443,-0.279866,-2.341793,-4.544754,-0.657978,20.283138,16.419417,13.198373,-0.174422,0.062566,0.000000,-0.422431,0.223671,-0.000000
1.830000,-1.191886,0.308720,-1.422858,0.978912,1.221991,-0.061667,-0.654500,-1.826060,-0.285778,-2.136610,-4.377672,-0.523813,20.746001,16.990611,13.622717,-0.178572,0.064739,0.000000,-0.407634,0.204101,0.000000
1.840000,-1.182130,0.320848,-1.423489,0.972264,1.203514,-0.064549,-0.674822,-1.868978,-0.290329,-1.927021,-4.205072,-0.385764,21.164257,17.522831,13.974815,-0.182574,0.066713,0.000000,-0.392656,0.184285,0.000000
1.850000,-1.172441,0.332789,-1.424149,0.965423,1.184617,-0.067469,-0.693027,-1.910144,-0.293483,-1.713475,-4.027348,-0.244568,21.537475,18.015342,14.251489,-0.186425,0.068486,0.000000,-0.377517,0.164250,-0.000000
1.860000,-1.162822,0.344539,-1.424839,0.958410,1.165317,-0.070414,-0.709080,-1.949508,-0.295203,-1.496452,-3.844796,-0.100121,21.865949,18.464779,14.427458,-0.190124,0.070055,0.000000,-0.362240,0.144027,0.000000
1.870000,-1.153273,0.356094,-1.425558,0.951249,1.145633,-0.073369,-0.722946,-1.987026,-0.295481,-1.276342,-3.658071,0.044704,22.148430,18.873361,14.524362,-0.193669,0.071418,0.000000,-0.346825,0.123619,0.000000
1.880000,-1.143797,0.367451,-1.426306,0.943959,1.125583,-0.076319,-0.734598,-2.022657,-0.294307,-1.053639,-3.467466,0.190101,22.384399,19.240675,14.541732,-0.197060,0.072574,0.000000,-0.331289,0.103055,0.000000
1.890000,-1.134394,0.378605,-1.427084,0.936564,1.105186,-0.079250,-0.744012,-2.056364,-0.291679,-0.828810,-3.273396,0.335272,22.573333,19.566311,14.479100,-0.200294,0.073520,0.000000,-0.315642,0.082355,-0.000000
1.900000,-1.125066,0.389553,-1.427891,0.929086,1.084462,-0.082147,-0.751169,-2.088114,-0.287605,-0.602330,-3.076280,0.479415,22.714710,19.849855,14.335999,-0.203372,0.074254,0.000000,-0.299888,0.061540,-0.000000
1.910000,-1.115813,0.400293,-1.428727,0.921548,1.063431,-0.084997,-0.756055,-2.117880,-0.282087,-0.374722,-2.876452,0.622671,22.809167,20.088655,14.088008,-0.206292,0.074776,0.000000,-0.284045,0.040639,0.000000
1.920000,-1.106635,0.410821,-1.429591,0.913973,1.042111,-0.087785,-0.758661,-2.145636,-0.275161,-0.146361,-2.674549,0.761983,22.854883,20.284815,13.761545,-0.209053,0.075084,0.000000,-0.268092,0.019645,0.000000
1.930000,-1.097533,0.421134,-1.430482,0.906383,1.020525,-0.090496,-0.758982,-2.171365,-0.266860,0.082211,-2.470899,0.897648,22.851197,20.438195,13.359074,-0.211654,0.075177,0.000000,-0.252040,-0.001409,-0.000000
1.940000,-1.088508,0.431230,-1.431400,0.898801,0.998691,-0.093118,-0.757018,-2.195050,-0.257223,0.310496,-2.265928,1.028919,22.797446,20.548660,12.883061,-0.214093,0.075055,0.000000,-0.235893,-0.022501,0.000000
1.950000,-1.079557,0.441107,-1.432344,0.891250,0.976630,-0.095636,-0.752774,-2.216680,-0.246298,0.537991,-2.060069,1.155072,22.692966,20.616070,12.335971,-0.216371,0.074717,0.000000,-0.219652,-0.043609,-0.000000
1.960000,-1.070682,0.450762,-1.433313,0.883753,0.954364,-0.098040,-0.746262,-2.236248,-0.234132,0.764244,-1.853608,1.276228,22.535567,20.636672,11.699593,-0.218486,0.074162,0.000000,-0.203321,-0.064707,-0.000000
1.970000,-1.061882,0.460194,-1.434305,0.876332,0.931912,-0.100315,-0.737496,-2.253753,-0.220796,0.988597,-1.647317,1.389775,22.326302,20.614387,10.999599,-0.220437,0.073391,0.000000,-0.186894,-0.085768,0.000000
1.980000,-1.053155,0.469400,-1.435319,0.869010,0.909296,-0.102452,-0.726497,-2.269196,-0.206361,1.210596,-1.441462,1.496025,22.064694,20.549521,10.240987,-0.222224,0.072404,0.000000,-0.170377,-0.106761,-0.000000
1.990000,-1.044501,0.478379,-1.436353,0.861810,0.886535,-0.104439,-0.713293,-2.282585,-0.190902,1.429715,-1.236467,1.594416,21.750268,20.442379,9.428752,-0.223844,0.071202,0.000000,-0.153773,-0.127655,-0.000000
2.000000,-1.035919,0.487130,-1.437407,0.854752,0.863651,-0.106267,-0.697915,-2.293930,-0.174500,1.645424,-1.032754,1.684438,21.382548,20.293267,8.567892,-0.225299,0.069786,0.000000,-0.137088,-0.148413,0.000000
2.010000,-1.027406,0.495652,-1.438478,0.847858,0.840663,-0.107926,-0.680395,-2.303243,-0.157237,1.857428,-0.830513,1.766134,20.954963,20.096732,7.650647,-0.226586,0.068157,0.000000,-0.120317,-0.169016,-0.000000
2.020000,-1.018961,0.503943,-1.439565,0.841151,0.817593,-0.109409,-0.660781,-2.310547,-0.139209,2.064617,-0.630698,1.837897,20.473879,19.859542,6.696331,-0.227705,0.066318,0.000000,-0.103493,-0.189372,-0.000000
2.030000,-1.010582,0.512004,-1.440665,0.834649,0.794459,-0.110708,-0.639120,-2.315866,-0.120511,2.266728,-0.433454,1.899959,19.939567,19.582707,5.711505,-0.228655,0.064271,0.000000,-0.086615,-0.209457,0.000000
2.040000,-1.002267,0.519832,-1.441778,0.828375,0.771282,-0.111817,-0.615465,-2.319226,-0.101243,2.463232,-0.239173,1.952047,19.352298,19.267239,4.702725,-0.229437,0.062018,0.000000,-0.069696,-0.229223,0.000000
2.050000,-0.994014,0.527429,-1.442901,0.822347,0.748081,-0.112732,-0.589876,-2.320660,-0.081504,2.653599,-0.048235,1.993955,18.712343,18.914146,3.676551,-0.230049,0.059564,0.000000,-0.052750,-0.248614,0.000000
2.060000,-0.985819,0.534794,-1.444032,0.816584,0.724875,-0.113446,-0.562411,-2.320200,-0.061397,2.837713,0.139265,2.025612,18.009624,18.517451,2.637763,-0.230492,0.056912,0.000000,-0.035773,-0.267615,-0.000000
2.070000,-0.977681,0.541927,-1.445169,0.811104,0.701683,-0.113959,-0.533146,-2.317889,-0.041027,3.014083,0.322310,2.046776,17.256027,18.086009,1.594916,-0.230765,0.054068,0.000000,-0.018842,-0.286071,-0.000000
2.080000,-0.969596,0.548828,-1.446311,0.805926,0.678523,-0.114266,-0.502155,-2.313769,-0.020497,3.182670,0.500875,2.057520,16.453090,17.621686,0.554787,-0.230869,0.051037,0.000000,-0.001954,-0.303964,0.000000
2.090000,-0.961562,0.555497,-1.447454,0.801067,0.655414,-0.114368,-0.469520,-2.307887,0.000089,3.342986,0.674641,2.057904,15.602352,17.126349,-0.475849,-0.230804,0.047825,0.000000,0.014864,-0.321230,-0.000000
2.100000,-0.953574,0.561936,-1.448597,0.796541,0.632371,-0.114265,-0.435325,-2.300293,0.020627,3.494562,0.843305,2.048057,14.705350,16.601863,-1.490214,-0.230572,0.044440,0.000000,0.031585,-0.337803,-0.000000
2.110000,-0.945630,0.568145,-1.449739,0.792365,0.609413,-0.113956,-0.399654,-2.291036,0.041013,3.637427,1.006849,2.027790,13.751415,16.043474,-2.471788,-0.230173,0.040888,0.000000,0.048210,-0.353665,0.000000
2.120000,-0.937725,0.574125,-1.450876,0.788553,0.586556,-0.113445,-0.362609,-2.280175,0.061151,3.769997,1.164388,1.998282,12.755787,15.460480,-3.424731,-0.229608,0.037178,0.000000,0.064625,-0.368629,-0.000000
2.130000,-0.929857,0.579877,-1.452007,0.785117,0.563815,-0.112734,-0.324288,-2.267768,0.080947,3.892414,1.315986,1.959410,11.721498,14.855558,-4.343461,-0.228881,0.033320,0.000000,0.080832,-0.382685,-0.000000
2.140000,-0.922022,0.585402,-1.453130,0.782071,0.541205,-0.111828,-0.284795,-2.253876,0.100309,4.004308,1.461435,1.911545,10.651582,14.231385,-5.222395,-0.227992,0.029323,0.000000,0.096793,-0.395766,0.000000
2.150000,-0.914215,0.590701,-1.454243,0.779425,0.518742,-0.110730,-0.244238,-2.238561,0.119149,4.105337,1.600558,1.855113,9.549070,13.590637,-6.055950,-0.226946,0.025198,0.000000,0.112470,-0.407808,0.000000
2.160000,-0.906432,0.595777,-1.455344,0.777189,0.496439,-0.109446,-0.202722,-2.221884,0.137376,4.195598,1.733371,1.789847,8.406715,12.931707,-6.819615,-0.225744,0.020955,0.000000,0.127856,-0.418791,-0.000000
2.170000,-0.898669,0.600631,-1.456431,0.775373,0.474309,-0.107984,-0.160365,-2.203915,0.154922,4.273846,1.859348,1.718057,7.239090,12.262082,-7.529052,-0.224390,0.016608,0.000000,0.142832,-0.428556,-0.000000
2.180000,-0.890923,0.605264,-1.457503,0.773984,0.452364,-0.106351,-0.117284,-2.184720,0.171715,4.340310,1.978588,1.639457,6.050486,11.584962,-8.180995,-0.222888,0.012168,0.000000,0.157394,-0.437097,-0.000000
2.190000,-0.883188,0.609678,-1.458558,0.773029,0.430618,-0.104553,-0.073598,-2.164366,0.187690,4.394800,2.091033,1.554639,4.845194,10.903550,-8.772179,-0.221244,0.007649,0.000000,0.171504,-0.444366,-0.000000
2.200000,-0.875461,0.613877,-1.459594,0.772514,0.409081,-0.102600,-0.029428,-2.142922,0.202789,4.437172,2.196655,1.464227,3.627507,10.221047,-9.299337,-0.219460,0.003063,0.000000,0.185125,-0.450321,-0.000000
2.210000,-0.867737,0.617861,-1.460609,0.772442,0.387763,-0.100500,0.015106,-2.120456,0.216948,4.467508,2.295464,1.367953,2.397062,9.540581,-9.735877,-0.217543,-0.001575,0.000000,0.198240,-0.454944,0.000000
2.220000,-0.860011,0.621633,-1.461603,0.772817,0.366675,-0.098264,0.059881,-2.097035,0.230135,4.485310,2.387488,1.268694,1.163375,8.865437,-10.104718,-0.215497,-0.006251,0.000000,0.210768,-0.458163,-0.000000
2.230000,-0.852279,0.625195,-1.462574,0.773640,0.345825,-0.095901,0.104771,-2.072728,0.242311,4.490780,2.472801,1.166086,-0.068693,8.198824,-10.405449,-0.213329,-0.010950,0.000000,0.222702,-0.459979,-0.000000
2.240000,-0.844536,0.628550,-1.463521,0.774912,0.325223,-0.093421,0.149655,-2.047601,0.253447,4.483958,2.551504,1.060813,-1.294281,7.543955,-10.637663,-0.211045,-0.015659,0.000000,0.234015,-0.460379,-0.000000
2.250000,-0.836779,0.631700,-1.464442,0.776632,0.304876,-0.090835,0.194410,-2.021720,0.263521,4.464933,2.623730,0.953562,-2.508527,6.904039,-10.800949,-0.208651,-0.020362,0.000000,0.244686,-0.459360,0.000000
2.260000,-0.829002,0.634649,-1.465337,0.778799,0.284791,-0.088154,0.238912,-1.995150,0.272505,4.433708,2.689433,0.844161,-3.703195,6.287633,-10.873066,-0.206154,-0.025045,0.000000,0.254694,-0.456911,0.000000
2.270000,-0.821201,0.637397,-1.466205,0.781410,0.264975,-0.085388,0.283045,-1.967951,0.280403,4.390787,2.749313,0.735350,-4.877211,5.691947,-10.878111,-0.203559,-0.029693,0.000000,0.264033,-0.453084,0.000000
2.280000,-0.813373,0.639949,-1.467045,0.784459,0.245434,-0.082549,0.326689,-1.940183,0.287213,4.336247,2.803350,0.626815,-6.026127,5.119537,-10.818348,-0.200875,-0.034293,0.000000,0.272694,-0.447884,0.000000
2.290000,-0.805511,0.642307,-1.467856,0.787941,0.226173,-0.079648,0.369732,-1.911903,0.292942,4.270363,2.851790,0.519192,-7.145495,4.572959,-10.696042,-0.198108,-0.038830,0.000000,0.280674,-0.441342,0.000000
2.300000,-0.797612,0.644473,-1.468637,0.791851,0.207197,-0.076694,0.412060,-1.883165,0.297602,4.193451,2.894904,0.413095,-8.230866,4.054770,-10.513457,-0.195264,-0.043291,0.000000,0.287976,-0.433495,-0.000000
2.310000,-0.789672,0.646452,-1.469389,0.796180,0.188511,-0.073699,0.453560,-1.854026,0.301204,4.105437,2.932585,0.308521,-9.266773,3.577713,-10.257839,-0.192351,-0.047663,0.000000,0.294581,-0.424343,0.000000
2.320000,-0.781687,0.648245,-1.470111,0.800919,0.170118,-0.070673,0.494135,-1.824529,0.303782,4.007762,2.966111,0.207447,-10.261135,3.132909,-9.948310,-0.189375,-0.051933,0.000000,0.300572,-0.414052,-0.000000
2.330000,-0.773653,0.649855,-1.470803,0.806059,0.152022,-0.067627,0.533683,-1.794718,0.305364,3.900364,2.995355,0.109721,-11.210856,2.721666,-9.588973,-0.186341,-0.056091,0.000000,0.305938,-0.402628,-0.000000
2.340000,-0.765565,0.651286,-1.471464,0.811589,0.134225,-0.064569,0.572111,-1.764635,0.305989,3.783704,3.020660,0.015820,-12.112834,2.345293,-9.183931,-0.183258,-0.060124,0.000000,0.310701,-0.390135,-0.000000
2.350000,-0.757420,0.652541,-1.472094,0.817497,0.116730,-0.061510,0.609328,-1.734317,0.305695,3.658276,3.042381,-0.073819,-12.963972,2.005097,-8.737287,-0.180129,-0.064023,0.000000,0.314891,-0.376642,-0.000000
2.360000,-0.749214,0.653622,-1.472694,0.823772,0.099539,-0.058458,0.645243,-1.703803,0.304526,3.524019,3.060411,-0.159006,-13.746393,1.714416,-8.247971,-0.176962,-0.067777,0.000000,0.318496,-0.362159,-0.000000
2.370000,-0.740943,0.654532,-1.473263,0.830398,0.082654,-0.055422,0.679783,-1.673118,0.302532,3.382873,3.076257,-0.238900,-14.473585,1.461056,-7.725893,-0.173761,-0.071378,0.000000,0.321659,-0.346911,0.000000
2.380000,-0.732605,0.655276,-1.473802,0.837362,0.066077,-0.052410,0.712877,-1.642286,0.299766,3.234736,3.089756,-0.313430,-15.144259,1.244854,-7.175792,-0.170531,-0.074819,0.000000,0.324369,-0.330905,-0.000000
2.390000,-0.724195,0.655855,-1.474312,0.844650,0.049809,-0.049429,0.744457,-1.611329,0.296282,3.080180,3.101277,-0.382338,-15.757125,1.065644,-6.602403,-0.167275,-0.078092,0.000000,0.326669,-0.314218,-0.000000
2.400000,-0.715711,0.656273,-1.474791,0.852246,0.033851,-0.046487,0.774461,-1.580266,0.292138,2.919790,3.111191,-0.445416,-16.310894,0.923263,-6.010465,-0.163998,-0.081190,0.000000,0.328601,-0.296931,0.000000
2.410000,-0.707149,0.656533,-1.475242,0.860134,0.018204,-0.043589,0.802829,-1.549114,0.287395,2.753622,3.119453,-0.502334,-16.790584,0.827943,-5.408956,-0.160705,-0.084109,0.000000,0.330165,-0.279067,0.000000
2.420000,-0.698507,0.656638,-1.475663,0.868297,0.002869,-0.040741,0.829519,-1.517879,0.282112,2.583567,3.127403,-0.553374,-17.210275,0.767850,-4.797852,-0.157396,-0.086843,0.000000,0.331516,-0.260836,0.000000
2.430000,-0.689782,0.656591,-1.476057,0.876719,-0.012153,-0.037948,0.854488,-1.486567,0.276348,2.409615,3.134923,-0.598273,-17.570354,0.741544,-4.181370,-0.154075,-0.089390,0.000000,0.332649,-0.242250,0.000000
2.440000,-0.680972,0.656396,-1.476422,0.885381,-0.026862,-0.035215,0.877700,-1.455181,0.270167,2.232358,3.142342,-0.636997,-17.871209,0.747588,-3.563727,-0.150744,-0.091745,0.000000,0.333609,-0.223386,0.000000
2.450000,-0.672074,0.656055,-1.476761,0.894267,-0.041257,-0.032546,0.899126,-1.423720,0.263629,2.052387,3.149978,-0.669558,-18.113227,0.784544,-2.949141,-0.147403,-0.093908,0.000000,0.334441,-0.204313,0.000000
2.460000,-0.663086,0.655572,-1.477073,0.903358,-0.055336,-0.029944,0.918736,-1.392183,0.256801,1.869898,3.157857,-0.695593,-18.286936,0.857911,-2.352227,-0.144055,-0.095876,0.000000,0.335155,-0.185066,-0.000000
2.470000,-0.654006,0.654950,-1.477360,0.912636,-0.069100,-0.027411,0.936519,-1.360560,0.249737,1.686397,3.166917,-0.716172,-18.403789,0.958465,-1.765532,-0.140700,-0.097648,0.000000,0.335876,-0.165797,0.000000
2.480000,-0.644832,0.654191,-1.477622,0.922082,-0.082547,-0.024949,0.952461,-1.328841,0.242497,1.502006,3.177109,-0.730947,-18.465382,1.083918,-1.191998,-0.137338,-0.099225,0.000000,0.336604,-0.146526,-0.000000
2.490000,-0.635564,0.653300,-1.477859,0.931679,-0.095676,-0.022561,0.966558,-1.297013,0.235137,1.317269,3.188671,-0.740066,-18.473308,1.231984,-0.634571,-0.133968,-0.100607,0.000000,0.337378,-0.127313,0.000000
2.500000,-0.626198,0.652279,-1.478073,0.941407,-0.108487,-0.020247,0.978807,-1.265062,0.227714,1.132714,3.201816,-0.743702,-18.429162,1.400376,-0.096193,-0.130590,-0.101795,0.000000,0.338233,-0.108213,-0.000000
2.510000,-0.616735,0.651131,-1.478265,0.951249,-0.120977,-0.018007,0.989212,-1.232972,0.220286,0.948640,3.216614,-0.741571,-18.329148,1.589934,0.407761,-0.127203,-0.102790,0.000000,0.339182,-0.089261,-0.000000
2.520000,-0.607173,0.649860,-1.478434,0.961185,-0.133146,-0.015841,0.997784,-1.200723,0.212899,0.766051,3.233527,-0.735070,-18.180911,1.794861,0.888300,-0.123806,-0.103595,0.000000,0.340302,-0.070545,-0.000000
2.530000,-0.597511,0.648469,-1.478582,0.971198,-0.144991,-0.013749,1.004539,-1.168295,0.205600,0.585175,3.252554,-0.723887,-17.986706,2.012485,1.343999,-0.120397,-0.104213,0.000000,0.341598,-0.052091,0.000000
2.540000,-0.587749,0.646961,-1.478709,0.981270,-0.156511,-0.011729,1.009495,-1.135665,0.198436,0.406462,3.273810,-0.708278,-17.748788,2.240137,1.773439,-0.116973,-0.104646,0.000000,0.343092,-0.033939,-0.000000
2.550000,-0.577886,0.645340,-1.478816,0.991382,-0.167703,-0.009779,1.012677,-1.102811,0.191448,0.230338,3.297381,-0.688511,-17.469411,2.475145,2.175196,-0.113534,-0.104897,0.000000,0.344804,-0.016126,-0.000000
2.560000,-0.567921,0.643608,-1.478905,1.001518,-0.178566,-0.007899,1.014111,-1.069709,0.184683,0.057135,3.323328,-0.664435,-17.149072,2.714854,2.536843,-0.110076,-0.104971,0.000000,0.346747,0.001314,-0.000000
2.570000,-0.557855,0.641770,-1.478975,1.011659,-0.189097,-0.006085,1.013831,-1.036336,0.178171,-0.112600,3.351684,-0.637380,-16.791998,2.956576,2.869311,-0.106598,-0.104872,0.000000,0.348946,0.018347,0.000000
2.580000,-0.547688,0.639828,-1.479027,1.021789,-0.199292,-0.004335,1.011871,-1.002667,0.171946,-0.278591,3.382457,-0.607146,-16.400661,3.197642,3.172525,-0.103097,-0.104604,0.000000,0.351404,0.034945,-0.000000
2.590000,-0.537420,0.637785,-1.479062,1.031891,-0.209149,-0.002645,1.008272,-0.968679,0.166038,-0.440507,3.415626,-0.574027,-15.977528,3.435379,3.446410,-0.099569,-0.104171,0.000000,0.354128,0.051085,0.000000
2.600000,-0.527050,0.635646,-1.479080,1.041949,-0.218664,-0.001013,1.003076,-0.934347,0.160474,-0.598043,3.451145,-0.538316,-15.525071,3.667114,3.690892,-0.096013,-0.103579,0.000000,0.357121,0.066742,0.000000
2.610000,-0.516581,0.633413,-1.479082,1.051947,-0.227835,0.000566,0.996327,-0.899647,0.155282,-0.750879,3.489051,-0.500010,-15.046779,3.887366,3.898373,-0.092426,-0.102832,0.000000,0.360391,0.081891,-0.000000
2.620000,-0.506012,0.631090,-1.479069,1.061871,-0.236656,0.002094,0.988075,-0.864559,0.150480,-0.898852,3.528981,-0.460108,-14.543977,4.096616,4.077223,-0.088805,-0.101936,0.000000,0.363914,0.096530,0.000000
2.630000,-0.495344,0.628681,-1.479040,1.071704,-0.245125,0.003576,0.978368,-0.829061,0.146086,-1.041684,3.570939,-0.418558,-14.019011,4.292539,4.228287,-0.085147,-0.100895,0.000000,0.367692,0.110636,0.000000
2.640000,-0.484578,0.626189,-1.478997,1.081433,-0.253236,0.005017,0.967259,-0.793134,0.142114,-1.179166,3.614779,-0.375633,-13.474225,4.472804,4.352411,-0.081450,-0.099717,0.000000,0.371715,0.124194,-0.000000
2.650000,-0.473716,0.623617,-1.478940,1.091045,-0.260986,0.006420,0.954803,-0.756760,0.138577,-1.311110,3.660335,-0.331597,-12.911965,4.635086,4.450443,-0.077712,-0.098405,0.000000,0.375970,0.137194,0.000000
2.660000,-0.462758,0.620970,-1.478869,1.100525,-0.268370,0.007790,0.941057,-0.719920,0.135486,-1.437253,3.707617,-0.286572,-12.337135,4.771908,4.519792,-0.073930,-0.096967,0.000000,0.380461,0.149613,0.000000
2.670000,-0.451706,0.618251,-1.478784,1.109862,-0.275383,0.009131,0.926077,-0.682603,0.132847,-1.557695,3.755929,-0.241128,-11.749208,4.886721,4.565162,-0.070102,-0.095407,0.000000,0.385121,0.161471,-0.000000
2.680000,-0.440561,0.615464,-1.478686,1.119043,-0.282020,0.010449,0.909923,-0.644798,0.130665,-1.672201,3.805273,-0.195344,-11.150215,4.977826,4.587819,-0.066227,-0.093731,0.000000,0.389952,0.172748,-0.000000
2.690000,-0.429325,0.612612,-1.478575,1.128056,-0.288277,0.011746,0.892653,-0.606495,0.128941,-1.780669,3.855401,-0.149443,-10.542188,5.043527,4.589030,-0.062302,-0.091946,0.000000,0.394928,0.183437,0.000000
2.700000,-0.418000,0.609700,-1.478452,1.136892,-0.294148,0.013029,0.874330,-0.567688,0.127676,-1.883021,3.906053,-0.103631,-9.927158,5.082126,4.570063,-0.058328,-0.090057,0.000000,0.400025,0.193536,-0.000000
2.710000,-0.406588,0.606731,-1.478315,1.145540,-0.299629,0.014301,0.855015,-0.528370,0.126867,-1.979076,3.957229,-0.058109,-9.310184,5.084826,4.532294,-0.054301,-0.088071,0.000000,0.405242,0.203029,0.000000
2.720000,-0.395090,0.603708,-1.478166,1.153989,-0.304714,0.015568,0.834769,-0.488544,0.126512,-2.069079,4.007967,-0.013049,-8.689900,5.057898,4.476868,-0.050223,-0.085993,0.000000,0.410479,0.211942,-0.000000
2.730000,-0.383509,0.600638,-1.478004,1.162232,-0.309398,0.016833,0.813654,-0.448212,0.126604,-2.152869,4.058285,0.031374,-8.067967,5.000515,4.405036,-0.046091,-0.083829,0.000000,0.415737,0.220263,0.000000
2.740000,-0.371846,0.597522,-1.477829,1.170260,-0.313677,0.018101,0.791732,-0.407381,0.127137,-2.230438,4.107873,0.075001,-7.446047,4.911847,4.318053,-0.041908,-0.081585,0.000000,0.420983,0.227990,-0.000000
2.750000,-0.360104,0.594365,-1.477641,1.178064,-0.317544,0.019377,0.769066,-0.366058,0.128101,-2.301795,4.156415,0.117689,-6.825800,4.791067,4.217172,-0.037672,-0.079267,0.000000,0.426182,0.235125,0.000000
2.760000,-0.348286,0.591172,-1.477441,1.185639,-0.320996,0.020665,0.745718,-0.324253,0.129486,-2.366836,4.203939,0.159208,-6.212153,4.628403,4.106035,-0.033384,-0.076881,0.000000,0.431333,0.241658,-0.000000
2.770000,-0.336392,0.587947,-1.477228,1.192976,-0.324028,0.021968,0.721749,-0.281985,0.131281,-2.425908,4.249274,0.199664,-5.603101,4.433065,3.983214,-0.029046,-0.074433,0.000000,0.436313,0.247623,0.000000
2.780000,-0.324427,0.584693,-1.477002,1.200072,-0.326635,0.023292,0.697220,-0.239275,0.133475,-2.478917,4.292492,0.238837,-4.999906,4.205320,3.849670,-0.024658,-0.071928,0.000000,0.441125,0.253009,0.000000
2.790000,-0.312392,0.581416,-1.476762,1.206919,-0.328812,0.024639,0.672191,-0.196144,0.136053,-2.525930,4.333273,0.276624,-4.403829,3.945436,3.706364,-0.020224,-0.069373,0.000000,0.445732,0.257822,0.000000
2.800000,-0.300289,0.578118,-1.476509,1.213514,-0.330556,0.026014,0.646721,-0.152618,0.139002,-2.567022,4.371295,0.312935,-3.816131,3.653679,3.554257,-0.015745,-0.066773,0.000000,0.450096,0.262067,0.000000
2.810000,-0.288122,0.574806,-1.476242,1.219852,-0.331863,0.027420,0.620871,-0.108724,0.142305,-2.602165,4.406594,0.347552,-3.241081,3.321410,3.397641,-0.011223,-0.064133,0.000000,0.454217,0.265739,-0.000000
2.820000,-0.275893,0.571483,-1.475960,1.225930,-0.332730,0.028861,0.594697,-0.064498,0.145948,-2.631744,4.438020,0.380714,-2.676564,2.958893,3.233737,-0.006661,-0.061460,0.000000,0.457970,0.268875,-0.000000
2.830000,-0.263605,0.568153,-1.475664,1.231745,-0.333152,0.030340,0.568255,-0.019976,0.149914,-2.655735,4.465675,0.412204,-2.123473,2.567486,3.063099,-0.002064,-0.058757,0.000000,0.461360,0.271468,0.000000
2.840000,-0.251259,0.564821,-1.475354,1.237295,-0.333128,0.031861,0.541601,0.024802,0.154186,-2.674255,4.489278,0.441956,-1.582700,2.148546,2.886280,0.002565,-0.056032,0.000000,0.464354,0.273529,-0.000000
2.850000,-0.238860,0.561492,-1.475027,1.242577,-0.332655,0.033425,0.514788,0.069795,0.158747,-2.687433,4.508559,0.469911,-1.055138,1.703430,2.703832,0.007221,-0.053288,0.000000,0.466918,0.275067,-0.000000
2.860000,-0.226409,0.558169,-1.474685,1.247590,-0.331732,0.035036,0.487870,0.114961,0.163577,-2.695303,4.523518,0.495888,-0.544254,1.227079,2.519520,0.011902,-0.050532,0.000000,0.469045,0.276084,0.000000
2.870000,-0.213909,0.554859,-1.474326,1.252334,-0.330356,0.036697,0.460898,0.160249,0.168659,-2.698252,4.533311,0.520141,-0.048051,0.728054,2.330293,0.016601,-0.047768,0.000000,0.470644,0.276613,-0.000000
2.880000,-0.201363,0.551564,-1.473951,1.256808,-0.328527,0.038410,0.433922,0.205610,0.173973,-2.696315,4.538010,0.542478,0.432891,0.208498,2.136309,0.021313,-0.045001,0.000000,0.471717,0.276657,0.000000
2.890000,-0.188774,0.548290,-1.473558,1.261013,-0.326244,0.040178,0.406988,0.250992,0.179502,-2.689647,4.537420,0.562852,0.897997,-0.329445,1.937730,0.026033,-0.042235,0.000000,0.472237,0.276227,0.000000
2.900000,-0.176143,0.545040,-1.473147,1.264948,-0.323507,0.042001,0.380144,0.296340,0.185224,-2.678409,4.531367,0.581218,1.346688,-0.883631,1.734714,0.030756,-0.039476,0.000000,0.472181,0.275338,-0.000000
2.910000,-0.163475,0.541821,-1.472718,1.268616,-0.320317,0.043883,0.353435,0.341601,0.191118,-2.662679,4.519769,0.597454,1.776104,-1.453640,1.529405,0.035475,-0.036727,0.000000,0.471536,0.273993,-0.000000
2.920000,-0.150772,0.538636,-1.472269,1.272017,-0.316675,0.045824,0.326904,0.386716,0.197166,-2.642843,4.502332,0.611703,2.188229,-2.035394,1.319736,0.040184,-0.033994,0.000000,0.470267,0.272230,-0.000000
2.930000,-0.138036,0.535489,-1.471801,1.275155,-0.312584,0.047826,0.300592,0.431628,0.203345,-2.618973,4.479029,0.623834,2.582765,-2.626539,1.105624,0.044878,-0.031280,0.000000,0.468366,0.270052,-0.000000
2.940000,-0.125270,0.532385,-1.471312,1.278030,-0.308044,0.049891,0.274538,0.476277,0.209635,-2.591247,4.449778,0.633801,2.959414,-3.224722,0.886986,0.049549,-0.028589,0.000000,0.465820,0.267476,0.000000
2.950000,-0.112476,0.529330,-1.470803,1.280646,-0.303059,0.052019,0.248779,0.520604,0.216014,-2.559846,4.414519,0.641558,3.317879,-3.827588,0.663740,0.054192,-0.025925,0.000000,0.462618,0.264517,0.000000
2.960000,-0.099658,0.526326,-1.470272,1.283007,-0.297633,0.054212,0.223353,0.564550,0.222459,-2.524928,4.373439,0.647014,3.657261,-4.438356,0.436963,0.058800,-0.023292,0.000000,0.458776,0.261189,-0.000000
2.970000,-0.086817,0.523378,-1.469718,1.285115,-0.291770,0.056469,0.198292,0.608052,0.228947,-2.486736,4.326003,0.650229,3.977934,-5.048415,0.205269,0.063365,-0.020693,0.000000,0.454236,0.257514,-0.000000
2.980000,-0.073956,0.520492,-1.469142,1.286974,-0.285474,0.058791,0.173628,0.651049,0.235455,-2.445432,4.272483,0.651102,4.279676,-5.654731,-0.031567,0.067882,-0.018132,0.000000,0.449021,0.253508,-0.000000
2.990000,-0.061078,0.517670,-1.468542,1.288589,-0.278751,0.061178,0.149393,0.693482,0.241961,-2.401206,4.212931,0.649580,4.562261,-6.254264,-0.273770,0.072344,-0.015612,0.000000,0.443135,0.249187,0.000000
3.000000,-0.048185,0.514918,-1.467918,1.289963,-0.271606,0.063630,0.125613,0.735288,0.248439,-2.354251,4.147431,0.645608,4.825465,-6.843980,-0.521567,0.076743,-0.013137,0.000000,0.436582,0.244569,0.000000
3.010000,-0.035280,0.512240,-1.467270,1.291103,-0.264047,0.066146,0.102318,0.776405,0.254866,-2.304622,4.075607,0.639250,5.065524,-7.408517,-0.778224,0.081073,-0.010708,0.000000,0.429322,0.239658,-0.000000
3.020000,-0.022364,0.509639,-1.466595,1.292011,-0.256080,0.068727,0.079529,0.816782,0.261215,-2.252848,3.998758,0.630160,5.286186,-7.958672,-1.040552,0.085327,-0.008328,0.000000,0.421486,0.234508,-0.000000
3.030000,-0.009440,0.507119,-1.465895,1.292695,-0.247714,0.071370,0.057268,0.856362,0.267460,-2.198962,3.916486,0.618420,5.487659,-8.492918,-1.308402,0.089500,-0.006001,0.000000,0.413030,0.229120,0.000000
3.040000,0.003489,0.504686,-1.465168,1.293159,-0.238956,0.074076,0.035556,0.895094,0.273574,-2.143158,3.828958,0.603974,5.670154,-9.009725,-1.581628,0.093586,-0.003728,0.000000,0.403970,0.223512,-0.000000
3.050000,0.016422,0.502341,-1.464413,1.293408,-0.229815,0.076841,0.014410,0.932925,0.279531,-2.085622,3.736355,0.586770,5.833878,-9.507567,-1.860082,0.097578,-0.001512,0.000000,0.394323,0.217703,0.000000
3.060000,0.029357,0.500091,-1.463631,1.293449,-0.220301,0.079666,-0.006152,0.969805,0.285302,-2.026546,3.638861,0.566865,5.979139,-9.984563,-2.146373,0.101470,0.000646,0.000000,0.384108,0.211711,-0.000000
3.070000,0.042290,0.497937,-1.462820,1.293287,-0.210422,0.082547,-0.026116,1.005686,0.290858,-1.966105,3.536721,0.543951,6.106034,-10.439581,-2.437260,0.105258,0.002744,0.000000,0.373346,0.205553,0.000000
3.080000,0.055222,0.495883,-1.461980,1.292928,-0.200190,0.085482,-0.045470,1.040524,0.296171,-1.904486,3.430148,0.518106,6.214763,-10.871138,-2.732256,0.108935,0.004779,0.000000,0.362060,0.199248,-0.000000
3.090000,0.068148,0.493934,-1.461110,1.292380,-0.189615,0.088469,-0.064202,1.074275,0.301210,-1.841869,3.319382,0.489293,6.305521,-11.277749,-3.030878,0.112498,0.006752,0.000000,0.350272,0.192814,0.000000
3.100000,0.081069,0.492092,-1.460210,1.291646,-0.178709,0.091505,-0.082304,1.106899,0.305947,-1.778435,3.204681,0.457478,6.378505,-11.657930,-3.332640,0.115939,0.008660,0.000000,0.338011,0.186268,0.000000
3.110000,0.093981,0.490361,-1.459280,1.290736,-0.167481,0.094587,-0.099768,1.138359,0.310351,-1.714254,3.086544,0.422707,6.431282,-12.015965,-3.638968,0.119257,0.010502,0.000000,0.325327,0.179617,-0.000000
3.120000,0.106883,0.488744,-1.458318,1.289653,-0.155945,0.097711,-0.116588,1.168618,0.314391,-1.649748,2.964719,0.384778,6.467001,-12.343895,-3.947233,0.122444,0.012277,0.000000,0.312192,0.172905,-0.000000
3.130000,0.119773,0.487243,-1.457325,1.288406,-0.144113,0.100873,-0.132762,1.197643,0.318036,-1.584969,2.839774,0.343759,6.486182,-12.639529,-4.256713,0.125499,0.013986,0.000000,0.298667,0.166137,0.000000
3.140000,0.132650,0.485862,-1.456301,1.287000,-0.131997,0.104070,-0.148287,1.225404,0.321256,-1.520078,2.712044,0.299642,6.489344,-12.900678,-4.566691,0.128417,0.015626,0.000000,0.284787,0.159329,0.000000
3.150000,0.145513,0.484604,-1.455244,1.285442,-0.119609,0.107297,-0.163163,1.251876,0.324018,-1.455234,2.581883,0.252426,6.477007,-13.125151,-4.876447,0.131194,0.017199,0.000000,0.270589,0.152499,0.000000
3.160000,0.158359,0.483471,-1.454154,1.283739,-0.106963,0.110549,-0.177393,1.277024,0.326297,-1.390638,2.448614,0.202417,6.450962,-13.284090,-5.192853,0.133826,0.018703,0.000000,0.256010,0.145668,-0.000000
3.170000,0.171187,0.482466,-1.453033,1.281897,-0.094073,0.113821,-0.190977,1.300844,0.328056,-1.326320,2.315137,0.148916,6.410299,-13.405238,-5.506669,0.136313,0.020138,0.000000,0.241340,0.138838,-0.000000
3.180000,0.183996,0.481590,-1.451878,1.279922,-0.080951,0.117108,-0.203921,1.323323,0.329265,-1.262480,2.180632,0.092297,6.355383,-13.489668,-5.816246,0.138653,0.021506,0.000000,0.226501,0.132031,0.000000
3.190000,0.196785,0.480847,-1.450690,1.277820,-0.067611,0.120405,-0.216229,1.344454,0.329892,-1.199259,2.045462,0.032611,6.286576,-13.538455,-6.119935,0.140843,0.022805,0.000000,0.211534,0.125263,-0.000000
3.200000,0.209552,0.480239,-1.449470,1.275599,-0.054066,0.123704,-0.227909,1.364231,0.329907,-1.136793,1.909978,-0.030076,6.204242,-13.552674,-6.416088,0.142883,0.024036,0.000000,0.196477,0.118548,0.000000
3.210000,0.222297,0.479767,-1.448216,1.273264,-0.040331,0.127001,-0.238967,1.382656,0.329281,-1.075137,1.774709,-0.095681,6.106720,-13.538172,-6.703046,0.144772,0.025200,0.000000,0.181390,0.111893,-0.000000
3.220000,0.235017,0.479433,-1.446930,1.270822,-0.026418,0.130287,-0.249415,1.399727,0.327984,-1.014610,1.639538,-0.164102,5.996645,-13.490668,-6.979171,0.146511,0.026298,0.000000,0.166263,0.105334,-0.000000
3.230000,0.247713,0.479239,-1.445611,1.268278,-0.012341,0.133558,-0.259263,1.415449,0.325990,-0.955244,1.505004,-0.235223,5.874629,-13.410650,-7.242815,0.148098,0.027330,0.000000,0.151157,0.098875,-0.000000
3.240000,0.260382,0.479186,-1.444259,1.265639,0.001887,0.136805,-0.268524,1.429830,0.323271,-0.897156,1.371431,-0.308911,5.741283,-13.298610,-7.492332,0.149534,0.028298,0.000000,0.136111,0.092529,-0.000000
3.250000,0.273025,0.479277,-1.442875,1.262909,0.016251,0.140021,-0.277211,1.442882,0.319803,-0.840454,1.239137,-0.385017,5.597218,-13.155038,-7.726072,0.150820,0.029202,0.000000,0.121163,0.086310,-0.000000
3.260000,0.285640,0.479512,-1.441459,1.260096,0.030740,0.143198,-0.285337,1.454617,0.315563,-0.785125,1.108371,-0.463436,5.440013,-12.978821,-7.940834,0.151958,0.030044,0.000000,0.106344,0.080218,0.000000
3.270000,0.298227,0.479892,-1.440011,1.257204,0.045339,0.146329,-0.292919,1.465055,0.310528,-0.731549,0.979590,-0.543840,5.273682,-12.772248,-8.136715,0.152948,0.030825,0.000000,0.091710,0.074295,-0.000000
3.280000,0.310784,0.480419,-1.438532,1.254240,0.060037,0.149406,-0.299973,1.474216,0.304680,-0.679678,0.853025,-0.626102,5.099209,-12.536008,-8.312258,0.153793,0.031548,0.000000,0.077290,0.068539,0.000000
3.290000,0.323311,0.481093,-1.437023,1.251207,0.074819,0.152420,-0.306518,1.482124,0.298000,-0.629589,0.728967,-0.710012,4.917577,-12.270786,-8.466005,0.154494,0.032213,0.000000,0.063121,0.062958,0.000000
3.300000,0.335808,0.481916,-1.435484,1.248111,0.089675,0.155363,-0.312571,1.488805,0.290475,-0.581347,0.607703,-0.795345,4.729767,-11.977270,-8.596500,0.155056,0.032823,0.000000,0.049241,0.057564,0.000000
3.310000,0.348273,0.482887,-1.433916,1.244957,0.104592,0.158227,-0.318153,1.494282,0.282089,-0.535173,0.488919,-0.881891,4.540862,-11.641144,-8.701506,0.155480,0.033379,0.000000,0.035625,0.052380,0.000000
3.320000,0.360707,0.484008,-1.432320,1.241749,0.119557,0.161002,-0.323281,1.498595,0.272834,-0.490729,0.374294,-0.969323,4.347242,-11.279935,-8.780440,0.155770,0.033884,0.000000,0.022453,0.047373,-0.000000
3.330000,0.373108,0.485278,-1.430696,1.238493,0.134560,0.163681,-0.327974,1.501780,0.262701,-0.448242,0.263396,-1.057408,4.149389,-10.896166,-8.831939,0.155930,0.034339,0.000000,0.009689,0.042571,0.000000
3.340000,0.385477,0.486699,-1.429046,1.235191,0.149589,0.166253,-0.332253,1.503876,0.251684,-0.407754,0.156438,-1.145866,3.947784,-10.492360,-8.854643,0.155965,0.034747,0.000000,-0.002639,0.037979,-0.000000
3.350000,0.397812,0.488270,-1.427372,1.231849,0.164634,0.168711,-0.336136,1.504923,0.239783,-0.369298,0.053607,-1.234400,3.742907,-10.071041,-8.847190,0.155879,0.035109,0.000000,-0.014502,0.033604,0.000000
3.360000,0.410114,0.489992,-1.425673,1.228470,0.179684,0.171046,-0.339645,1.504964,0.226994,-0.332820,-0.044781,-1.322989,3.533109,-9.638574,-8.801026,0.155677,0.035428,0.000000,-0.025866,0.029439,0.000000
3.370000,0.422381,0.491864,-1.423951,1.225057,0.194730,0.173248,-0.342800,1.504042,0.213325,-0.298547,-0.138950,-1.410635,3.321260,-9.193170,-8.722861,0.155363,0.035705,0.000000,-0.036736,0.025515,-0.000000
3.380000,0.434615,0.493886,-1.422208,1.221615,0.209762,0.175310,-0.345623,1.502200,0.198784,-0.266399,-0.228608,-1.497338,3.108105,-8.736885,-8.612213,0.154944,0.035945,0.000000,-0.047079,0.021822,0.000000
3.390000,0.446813,0.496059,-1.420445,1.218146,0.224771,0.177221,-0.348135,1.499485,0.183383,-0.236387,-0.313658,-1.582770,2.894383,-8.271770,-8.468601,0.154423,0.036148,0.000000,-0.056881,0.018364,0.000000
3.400000,0.458977,0.498381,-1.418664,1.214653,0.239749,0.178975,-0.350357,1.495943,0.167134,-0.208511,-0.394021,-1.666598,2.680837,-7.799880,-8.291544,0.153808,0.036317,0.000000,-0.066126,0.015143,-0.000000
3.410000,0.471106,0.500854,-1.416866,1.211140,0.254687,0.180561,-0.352313,1.491620,0.150054,-0.182820,-0.469676,-1.748772,2.469540,-7.322367,-8.073381,0.153103,0.036455,0.000000,-0.074812,0.012163,-0.000000
3.420000,0.483200,0.503475,-1.415054,1.207608,0.269579,0.181973,-0.354021,1.486565,0.132167,-0.159175,-0.540500,-1.828275,2.259739,-6.842296,-7.821689,0.152314,0.036564,0.000000,-0.082911,0.009414,-0.000000
3.430000,0.495259,0.506245,-1.413228,1.204060,0.284416,0.183202,-0.355503,1.480826,0.113498,-0.137618,-0.606520,-1.905095,2.052013,-6.361830,-7.536865,0.151446,0.036647,0.000000,-0.090426,0.006900,0.000000
3.440000,0.507281,0.509163,-1.411390,1.200498,0.299193,0.184240,-0.356780,1.474451,0.094075,-0.118126,-0.667743,-1.978903,1.846939,-5.883134,-7.219307,0.150507,0.036705,0.000000,-0.097356,0.004620,0.000000
3.450000,0.519268,0.512229,-1.409543,1.196925,0.313903,0.185081,-0.357872,1.467487,0.073931,-0.100669,-0.724196,-2.049373,1.645098,-5.408371,-6.869413,0.149501,0.036741,0.000000,-0.103700,0.002570,0.000000
3.460000,0.531220,0.515441,-1.407689,1.193341,0.328541,0.185717,-0.358801,1.459984,0.053096,-0.085258,-0.775807,-2.116490,1.448249,-4.942826,-6.479880,0.148435,0.036757,0.000000,-0.109454,0.000752,-0.000000
3.470000,0.543135,0.518799,-1.405830,1.189749,0.343101,0.186141,-0.359584,1.451986,0.031614,-0.071742,-0.822939,-2.179213,1.255645,-4.485159,-6.059748,0.147314,0.036757,0.000000,-0.114643,-0.000848,-0.000000
3.480000,0.555015,0.522303,-1.403967,1.186150,0.357579,0.186347,-0.360242,1.443540,0.009527,-0.060130,-0.865542,-2.237587,1.067718,-4.037152,-5.610359,0.146144,0.036741,0.000000,-0.119267,-0.002230,0.000000
3.490000,0.566858,0.525950,-1.402104,1.182545,0.371971,0.186330,-0.360793,1.434690,-0.013122,-0.050371,-0.903721,-2.291327,0.884903,-3.600587,-5.133052,0.144931,0.036712,0.000000,-0.123337,-0.003399,0.000000
3.500000,0.578666,0.529742,-1.400241,1.178935,0.386272,0.186083,-0.361255,1.425480,-0.036284,-0.042413,-0.937598,-2.340160,0.707633,-3.177245,-4.629170,0.143679,0.036673,0.000000,-0.126866,-0.004361,0.000000
3.510000,0.590437,0.533676,-1.398383,1.175320,0.400479,0.185602,-0.361647,1.415954,-0.059911,-0.036254,-0.967110,-2.384082,0.537742,-2.774096,-4.093596,0.142395,0.036625,0.000000,-0.129854,-0.005118,0.000000
3.520000,0.602172,0.537751,-1.396530,1.171702,0.414590,0.184883,-0.361986,1.406151,-0.083947,-0.031700,-0.992902,-2.422243,0.374093,-2.387098,-3.534918,0.141084,0.036570,0.000000,-0.132359,-0.005688,-0.000000
3.530000,0.613871,0.541967,-1.394686,1.168080,0.428602,0.183922,-0.362287,1.396109,-0.108337,-0.028750,-1.014910,-2.454710,0.216947,-2.017397,-2.955266,0.139750,0.036511,0.000000,-0.134382,-0.006073,0.000000
3.540000,0.625534,0.546323,-1.392852,1.164456,0.442512,0.182716,-0.362566,1.385865,-0.133022,-0.027338,-1.033312,-2.481285,0.066565,-1.666140,-2.356772,0.138398,0.036448,0.000000,-0.135944,-0.006281,0.000000
3.550000,0.637160,0.550817,-1.391032,1.160829,0.456318,0.181261,-0.362839,1.375454,-0.157942,-0.027396,-1.048298,-2.501790,-0.076790,-1.334471,-1.741566,0.137032,0.036384,0.000000,-0.137069,-0.006319,0.000000
3.560000,0.648750,0.555449,-1.389228,1.157199,0.470020,0.179556,-0.363119,1.364911,-0.183038,-0.028920,-1.059962,-2.516219,-0.211084,-1.026277,-1.107958,0.135658,0.036321,0.000000,-0.137772,-0.006190,0.000000
3.570000,0.660304,0.560217,-1.387442,1.153567,0.483616,0.177600,-0.363421,1.354265,-0.208245,-0.031672,-1.068773,-2.524080,-0.338044,-0.739630,-0.462368,0.134278,0.036260,0.000000,-0.138099,-0.005917,0.000000
3.580000,0.671822,0.565121,-1.385677,1.149931,0.497105,0.175391,-0.363757,1.343545,-0.233498,-0.035656,-1.074829,-2.525435,-0.457625,-0.475339,0.192604,0.132897,0.036202,0.000000,-0.138068,-0.005501,-0.000000
3.590000,0.683303,0.570159,-1.383935,1.146291,0.510487,0.172930,-0.364138,1.332777,-0.258732,-0.040800,-1.078357,-2.520205,-0.569782,-0.234216,0.854358,0.131518,0.036149,0.000000,-0.137706,-0.004950,-0.000000
3.600000,0.694747,0.575330,-1.382219,1.142648,0.523761,0.170217,-0.364577,1.321985,-0.283880,-0.047027,-1.079593,-2.508334,-0.674470,-0.017071,1.520295,0.130144,0.036103,0.000000,-0.137042,-0.004274,-0.000000
3.610000,0.706156,0.580634,-1.380532,1.139000,0.536926,0.167253,-0.365082,1.311201,-0.308877,-0.054258,-1.077926,-2.489845,-0.771791,0.153695,2.189101,0.128779,0.036064,0.000000,-0.136023,-0.003482,0.000000
3.620000,0.717527,0.586068,-1.378875,1.135346,0.549984,0.164040,-0.365665,1.300432,-0.333655,-0.062431,-1.075632,-2.464614,-0.861534,0.301505,2.856735,0.127424,0.036033,0.000000,-0.134874,-0.002580,-0.000000
3.630000,0.728863,0.591633,-1.377252,1.131686,0.562935,0.160581,-0.366334,1.289693,-0.358147,-0.071463,-1.071966,-2.432723,-0.943638,0.428191,3.520439,0.126082,0.036012,0.000000,-0.133529,-0.001577,0.000000
3.640000,0.740161,0.597327,-1.375664,1.128019,0.575778,0.156878,-0.367097,1.278996,-0.382287,-0.081278,-1.067132,-2.394227,-1.018038,0.535587,4.177458,0.124754,0.036002,0.000000,-0.132012,-0.000482,-0.000000
3.650000,0.751423,0.603148,-1.374115,1.124344,0.588515,0.152937,-0.367961,1.268354,-0.406010,-0.091798,-1.061313,-2.349206,-1.084672,0.625526,4.825035,0.123442,0.036003,0.000000,-0.130347,0.000697,-0.000000
3.660000,0.762648,0.609097,-1.372606,1.120659,0.601146,0.148760,-0.368936,1.257764,-0.429248,-0.103080,-1.055537,-2.297613,-1.140089,0.721647,5.456536,0.122147,0.036016,0.000000,-0.128637,0.001965,0.000000
3.670000,0.773836,0.615171,-1.371140,1.116965,0.613671,0.144353,-0.370025,1.247246,-0.451941,-0.114726,-1.047908,-2.239950,-1.188028,0.801305,6.073557,0.120870,0.036042,0.000000,-0.126707,0.003281,0.000000
3.680000,0.784987,0.621370,-1.369720,1.113259,0.626091,0.139723,-0.371232,1.236808,-0.474027,-0.126816,-1.039569,-2.176198,-1.228841,0.863664,6.673815,0.119613,0.036082,0.000000,-0.124672,0.004653,-0.000000
3.690000,0.796101,0.627692,-1.368347,1.109540,0.638407,0.134875,-0.372562,1.226456,-0.495445,-0.139281,-1.030696,-2.106537,-1.262880,0.907886,7.255030,0.118377,0.036136,0.000000,-0.122553,0.006075,-0.000000
3.700000,0.807178,0.634137,-1.367023,1.105807,0.650621,0.129817,-0.374019,1.216195,-0.516139,-0.152053,-1.021474,-2.031169,-1.290495,0.933133,7.814919,0.117162,0.036205,0.000000,-0.120373,0.007538,-0.000000
3.710000,0.818217,0.640704,-1.365751,1.102059,0.662731,0.124555,-0.375604,1.206035,-0.536048,-0.165039,-1.011412,-1.950122,-1.312819,0.921209,8.346254,0.115970,0.036288,0.000000,-0.118088,0.009036,0.000000
3.720000,0.829219,0.647392,-1.364533,1.098294,0.674741,0.119098,-0.377320,1.195966,-0.555124,-0.178255,-1.002337,-1.864107,-1.329328,0.890761,8.852305,0.114800,0.036387,0.000000,-0.115880,0.010567,0.000000
3.730000,0.840183,0.654199,-1.363370,1.094512,0.686651,0.113455,-0.379169,1.185987,-0.573314,-0.191607,-0.993654,-1.773165,-1.340278,0.843077,9.331398,0.113652,0.036501,0.000000,-0.113695,0.012122,0.000000
3.740000,0.851109,0.661124,-1.362264,1.090711,0.698461,0.107635,-0.381153,1.176091,-0.590572,-0.205043,-0.985529,-1.677575,-1.345926,0.779445,9.781855,0.112526,0.036631,0.000000,-0.111553,0.013698,-0.000000
3.750000,0.861997,0.668168,-1.361218,1.086889,0.710173,0.101647,-0.383270,1.166274,-0.606851,-0.218509,-0.978114,-1.577629,-1.346527,0.701153,10.202000,0.111421,0.036777,0.000000,-0.109472,0.015288,-0.000000
3.760000,0.872847,0.675328,-1.360232,1.083045,0.721787,0.095501,-0.385522,1.156532,-0.622108,-0.231910,-0.970964,-1.473390,-1.343522,0.594678,10.583808,0.110337,0.036939,0.000000,-0.107409,0.016885,0.000000
3.770000,0.883658,0.682603,-1.359308,1.079178,0.733304,0.089208,-0.387908,1.146851,-0.636307,-0.245311,-0.965593,-1.365779,-1.335838,0.477934,10.932729,0.109273,0.037116,0.000000,-0.105520,0.018491,0.000000
3.780000,0.894430,0.689993,-1.358448,1.075286,0.744724,0.082779,-0.390428,1.137217,-0.649412,-0.258612,-0.961429,-1.254848,-1.323586,0.354021,11.247867,0.108226,0.037311,0.000000,-0.103748,0.020100,-0.000000
3.790000,0.905164,0.697497,-1.357653,1.071369,0.756048,0.076224,-0.393080,1.127618,-0.661394,-0.271768,-0.958526,-1.140938,-1.306876,0.226042,11.528321,0.107197,0.037521,0.000000,-0.102104,0.021707,0.000000
3.800000,0.915858,0.705114,-1.356924,1.067424,0.767277,0.069555,-0.395863,1.118042,-0.672222,-0.284735,-0.956911,-1.024400,-1.285821,0.097099,11.773195,0.106184,0.037747,0.000000,-0.100592,0.023307,-0.000000
3.810000,0.926512,0.712842,-1.356262,1.063451,0.778409,0.062783,-0.398775,1.108463,-0.681871,-0.297560,-0.957714,-0.905280,-1.258251,-0.001008,11.973622,0.105184,0.037990,0.000000,-0.099318,0.024907,0.000000
3.820000,0.937127,0.720682,-1.355669,1.059448,0.789446,0.055921,-0.401813,1.098884,-0.690322,-0.309989,-0.958207,-0.784693,-1.226836,-0.097390,12.137646,0.104197,0.038248,0.000000,-0.098038,0.026479,-0.000000
3.830000,0.947701,0.728631,-1.355144,1.055414,0.800387,0.048981,-0.404974,1.089296,-0.697560,-0.322086,-0.959657,-0.662648,-1.191966,-0.192459,12.265345,0.103223,0.038522,0.000000,-0.096868,0.028030,0.000000
3.840000,0.958235,0.736689,-1.354689,1.051348,0.811232,0.041974,-0.408254,1.079688,-0.703571,-0.333818,-0.962053,-0.539507,-1.154032,-0.286628,12.356796,0.102259,0.038812,0.000000,-0.095812,0.029558,0.000000
3.850000,0.968728,0.744855,-1.354305,1.047249,0.821981,0.034914,-0.411649,1.070051,-0.708347,-0.345157,-0.965388,-0.415633,-1.113425,-0.380309,12.412076,0.101306,0.039116,0.000000,-0.094872,0.031060,-0.000000
3.860000,0.979180,0.753129,-1.353991,1.043115,0.832633,0.027811,-0.415155,1.060382,-0.711880,-0.356009,-0.969178,-0.291183,-1.072311,-0.486054,12.426127,0.100362,0.039436,0.000000,-0.094003,0.032528,-0.000000
3.870000,0.989590,0.761508,-1.353749,1.038945,0.843188,0.020680,-0.418768,1.050664,-0.714171,-0.366517,-0.974563,-0.166999,-1.029085,-0.590649,12.404790,0.099426,0.039770,0.000000,-0.093319,0.033972,-0.000000
3.880000,0.999958,0.769992,-1.353577,1.034739,0.853646,0.013532,-0.422483,1.040887,-0.715222,-0.376584,-0.980984,-0.043202,-0.983922,-0.693021,12.348771,0.098495,0.040119,0.000000,-0.092769,0.035385,0.000000
3.890000,1.010285,0.778580,-1.353478,1.030495,0.864006,0.006380,-0.426298,1.031041,-0.715038,-0.386190,-0.988413,0.079863,-0.936993,-0.792095,12.258777,0.097570,0.040481,0.000000,-0.092353,0.036764,-0.000000
3.900000,1.020568,0.787272,-1.353450,1.026213,0.874266,-0.000765,-0.430206,1.021116,-0.713628,-0.395318,-0.996811,0.201862,-0.888470,-0.886797,12.135515,0.096648,0.040857,0.000000,-0.092069,0.038106,-0.000000
3.910000,1.030809,0.796065,-1.353493,1.021891,0.884428,-0.007889,-0.434202,1.011099,-0.711003,-0.403951,-1.006414,0.322637,-0.838612,-0.968898,11.975352,0.095728,0.041247,0.000000,-0.091941,0.039412,0.000000
3.920000,1.041006,0.804960,-1.353607,1.017529,0.894488,-0.014981,-0.438283,1.000985,-0.707181,-0.412083,-1.016490,0.441459,-0.787495,-1.045355,11.783863,0.094809,0.041649,0.000000,-0.091906,0.040677,-0.000000
3.930000,1.051159,0.813955,-1.353793,1.013125,0.904447,-0.022029,-0.442442,0.990767,-0.702181,-0.419697,-1.027301,0.558214,-0.735283,-1.115970,11.562286,0.093889,0.042064,0.000000,-0.091989,0.041900,-0.000000
3.940000,1.061268,0.823049,-1.354048,1.008680,0.914303,-0.029020,-0.446675,0.980437,-0.696025,-0.426785,-1.038789,0.672608,-0.682137,-1.180545,11.311857,0.092968,0.042491,0.000000,-0.092187,0.043080,0.000000
3.950000,1.071333,0.832240,-1.354373,1.004191,0.924055,-0.035945,-0.450976,0.969989,-0.688738,-0.433337,-1.050891,0.784359,-0.628221,-1.238882,11.033816,0.092045,0.042929,0.000000,-0.092497,0.044214,0.000000
3.960000,1.081352,0.841529,-1.354767,0.999660,0.933703,-0.042792,-0.455340,0.959416,-0.680346,-0.439335,-1.063671,0.893298,-0.574021,-1.287614,10.726827,0.091118,0.043378,0.000000,-0.092924,0.045302,-0.000000
3.970000,1.091326,0.850914,-1.355228,0.995084,0.943243,-0.049549,-0.459761,0.948714,-0.670882,-0.444802,-1.076764,0.998928,-0.519334,-1.330101,10.395015,0.090186,0.043839,0.000000,-0.093439,0.046342,-0.000000
3.980000,1.101253,0.860394,-1.355757,0.990464,0.952676,-0.056206,-0.464234,0.937879,-0.660379,-0.449720,-1.090253,1.101121,-0.464285,-1.366531,10.039930,0.089249,0.044309,0.000000,-0.094050,0.047332,-0.000000
3.990000,1.111135,0.869967,-1.356352,0.985799,0.962000,-0.062753,-0.468754,0.926908,-0.648872,-0.454087,-1.104075,1.199654,-0.408994,-1.397095,9.663124,0.088305,0.044789,0.000000,-0.094752,0.048271,0.000000
4.000000,1.120969,0.879633,-1.357012,0.981089,0.971214,-0.069180,-0.473314,0.915797,-0.636399,-0.457900,-1.118175,1.294316,-0.353584,-1.421982,9.266151,0.087354,0.045278,0.000000,-0.095542,0.049158,0.000000
4.010000,1.130756,0.889391,-1.357735,0.976333,0.980316,-0.075478,-0.477910,0.904543,-0.622999,-0.461147,-1.132581,1.384956,-0.298468,-1.439245,8.849519,0.086394,0.045776,0.000000,-0.096422,0.049989,-0.000000
4.020000,1.140496,0.899239,-1.358521,0.971531,0.989304,-0.081637,-0.482535,0.893145,-0.608714,-0.463856,-1.147039,1.471297,-0.243444,-1.451474,8.415950,0.085425,0.046281,0.000000,-0.097371,0.050767,0.000000
4.030000,1.150187,0.909177,-1.359367,0.966682,0.998178,-0.087649,-0.487185,0.881602,-0.593588,-0.466016,-1.161596,1.553224,-0.188597,-1.459119,7.967125,0.084446,0.046794,0.000000,-0.098393,0.051488,-0.000000
4.040000,1.159829,0.919203,-1.360273,0.961787,1.006936,-0.093506,-0.491854,0.869913,-0.577665,-0.467629,-1.176208,1.630594,-0.134015,-1.462633,7.504722,0.083457,0.047314,0.000000,-0.099485,0.052151,-0.000000
4.050000,1.169422,0.929315,-1.361237,0.956845,1.015576,-0.099200,-0.496536,0.858077,-0.560991,-0.468698,-1.190836,1.703279,-0.079785,-1.462467,7.030423,0.082456,0.047841,0.000000,-0.100641,0.052755,-0.000000
4.060000,1.178966,0.939514,-1.362257,0.951856,1.024097,-0.104724,-0.501226,0.846096,-0.543615,-0.469220,-1.205471,1.771157,-0.026164,-1.458458,6.546190,0.081444,0.048373,0.000000,-0.101863,0.053298,0.000000
4.070000,1.188459,0.949797,-1.363331,0.946821,1.032498,-0.110070,-0.505918,0.833968,-0.525585,-0.469215,-1.220024,1.834161,0.026952,-1.451747,6.053384,0.080419,0.048910,0.000000,-0.103141,0.053781,0.000000
4.080000,1.197902,0.960163,-1.364458,0.941738,1.040776,-0.115233,-0.510608,0.821695,-0.506949,-0.468682,-1.234498,1.892202,0.079497,-1.442862,5.553650,0.079381,0.049452,0.000000,-0.104474,0.054201,0.000000
4.090000,1.207294,0.970612,-1.365635,0.936608,1.048931,-0.120207,-0.515290,0.809278,-0.487757,-0.467627,-1.248875,1.945217,0.131404,-1.432331,5.048634,0.078329,0.049997,0.000000,-0.105861,0.054558,0.000000
4.100000,1.216634,0.981141,-1.366861,0.931432,1.056961,-0.124987,-0.519959,0.796718,-0.468061,-0.466057,-1.263141,1.993162,0.182608,-1.420679,4.539979,0.077263,0.050546,0.000000,-0.107299,0.054850,-0.000000
4.110000,1.225923,0.991751,-1.368134,0.926209,1.064865,-0.129567,-0.524610,0.784016,-0.447912,-0.463974,-1.277252,2.035956,0.232958,-1.409306,4.030696,0.076183,0.051097,0.000000,-0.108783,0.055077,0.000000
4.120000,1.235158,1.002438,-1.369452,0.920940,1.072641,-0.133944,-0.529237,0.771174,-0.427359,-0.461396,-1.291288,2.073713,0.282482,-1.397759,3.520897,0.075087,0.051651,0.000000,-0.110319,0.055238,0.000000
4.130000,1.244341,1.013203,-1.370812,0.915625,1.080288,-0.138113,-0.533836,0.758191,-0.406454,-0.458328,-1.305208,2.106377,0.331125,-1.386461,3.012061,0.073976,0.052205,0.000000,-0.111902,0.055332,0.000000
4.140000,1.253471,1.024044,-1.372213,0.910264,1.087804,-0.142072,-0.538402,0.745070,-0.385248,-0.454777,-1.319019,2.133963,0.378832,-1.375829,2.505664,0.072849,0.052760,0.000000,-0.113530,0.055358,-0.000000
4.150000,1.262546,1.034959,-1.373653,0.904857,1.095189,-0.145817,-0.542930,0.731811,-0.363792,-0.450754,-1.332729,2.156503,0.425547,-1.366286,2.003185,0.071706,0.053315,0.000000,-0.115203,0.055317,0.000000
4.160000,1.271568,1.045947,-1.375129,0.899405,1.102440,-0.149347,-0.547415,0.718416,-0.342136,-0.446265,-1.346284,2.173959,0.471104,-1.359904,1.508265,0.070545,0.053869,0.000000,-0.116914,0.055206,0.000000
4.170000,1.280534,1.057007,-1.376639,0.893909,1.109557,-0.152659,-0.551854,0.704885,-0.320329,-0.441331,-1.359859,2.186594,0.515571,-1.355248,1.019954,0.069367,0.054422,0.000000,-0.118677,0.055027,-0.000000
4.180000,1.289446,1.068138,-1.378181,0.888368,1.116537,-0.155753,-0.556241,0.691219,-0.298420,-0.435958,-1.373396,2.194384,0.558906,-1.352536,0.539464,0.068171,0.054972,0.000000,-0.120484,0.054780,-0.000000
4.190000,1.298301,1.079337,-1.379753,0.882784,1.123381,-0.158627,-0.560572,0.677418,-0.276457,-0.430157,-1.386917,2.197413,0.601068,-1.351984,0.068008,0.066957,0.055520,0.000000,-0.122335,0.054464,0.000000
4.200000,1.307101,1.090605,-1.381353,0.877157,1.130085,-0.161282,-0.564842,0.663481,-0.254487,-0.423940,-1.400444,2.195778,0.642012,-1.353812,-0.393201,0.065725,0.056064,0.000000,-0.124231,0.054079,-0.000000
4.210000,1.315844,1.101939,-1.382978,0.871487,1.136650,-0.163717,-0.569049,0.649409,-0.232558,-0.417317,-1.413929,2.189481,0.681613,-1.360067,-0.840267,0.064473,0.056603,0.000000,-0.126163,0.053625,-0.000000
4.220000,1.324531,1.113337,-1.384627,0.865776,1.143073,-0.165934,-0.573187,0.635202,-0.210713,-0.410308,-1.427572,2.178894,0.719923,-1.368912,-1.274989,0.063201,0.057138,0.000000,-0.128148,0.053103,-0.000000
4.230000,1.333160,1.124800,-1.386296,0.860024,1.149353,-0.167932,-0.577254,0.620858,-0.188994,-0.402923,-1.441316,2.164026,0.756911,-1.380342,-1.696482,0.061910,0.057667,0.000000,-0.130179,0.052515,0.000000
4.240000,1.341731,1.136324,-1.387985,0.854231,1.155490,-0.169714,-0.581245,0.606375,-0.167446,-0.395175,-1.455187,2.145012,0.792547,-1.394348,-2.103862,0.060597,0.058190,0.000000,-0.132254,0.051859,-0.000000
4.250000,1.350244,1.147909,-1.389690,0.848399,1.161480,-0.171282,-0.585156,0.591753,-0.146108,-0.387077,-1.469211,2.121998,0.826797,-1.410926,-2.496244,0.059264,0.058706,0.000000,-0.134374,0.051138,0.000000
4.260000,1.358699,1.159553,-1.391410,0.842528,1.167324,-0.172637,-0.588985,0.576991,-0.125020,-0.378640,-1.483351,2.095025,0.859532,-1.431657,-2.869835,0.057910,0.059214,0.000000,-0.136533,0.050351,-0.000000
4.270000,1.367095,1.171255,-1.393142,0.836620,1.173020,-0.173783,-0.592728,0.562086,-0.104219,-0.369887,-1.497782,2.064526,0.890831,-1.454752,-3.227015,0.056534,0.059715,0.000000,-0.138743,0.049502,-0.000000
4.280000,1.375431,1.183013,-1.394885,0.830674,1.178565,-0.174722,-0.596382,0.547035,-0.083741,-0.360828,-1.512454,2.030541,0.920675,-1.480010,-3.567258,0.055135,0.060206,0.000000,-0.140998,0.048591,-0.000000
4.290000,1.383708,1.194826,-1.396636,0.824693,1.183960,-0.175459,-0.599943,0.531836,-0.063619,-0.351478,-1.527388,1.993240,0.949043,-1.507230,-3.890034,0.053713,0.060688,0.000000,-0.143297,0.047619,-0.000000
4.300000,1.391925,1.206692,-1.398393,0.818676,1.189202,-0.175996,-0.603410,0.516486,-0.043887,-0.341852,-1.542604,1.952800,0.975917,-1.536211,-4.194817,0.052269,0.061159,0.000000,-0.145638,0.046589,0.000000
4.310000,1.400082,1.218609,-1.400155,0.812625,1.194289,-0.176338,-0.606780,0.500983,-0.024575,-0.331960,-1.558076,1.909292,1.001159,-1.567808,-4.478221,0.050801,0.061621,0.000000,-0.148017,0.045500,-0.000000
4.320000,1.408177,1.230577,-1.401919,0.806540,1.199221,-0.176489,-0.610049,0.485323,-0.005710,-0.321829,-1.573917,1.863171,1.024881,-1.600635,-4.742924,0.049308,0.062070,0.000000,-0.150441,0.044359,0.000000
4.330000,1.416212,1.242593,-1.403684,0.800424,1.203995,-0.176454,-0.613215,0.469504,0.012680,-0.311468,-1.590092,1.814496,1.047079,-1.634362,-4.988749,0.047792,0.062509,0.000000,-0.152903,0.043164,0.000000
4.340000,1.424186,1.254656,-1.405448,0.794276,1.208610,-0.176237,-0.616277,0.453520,0.030572,-0.300892,-1.606606,1.763459,1.067748,-1.668661,-5.215516,0.046250,0.062935,0.000000,-0.155403,0.041920,-0.000000
4.350000,1.432098,1.266765,-1.407208,0.788099,1.213065,-0.175844,-0.619233,0.437370,0.047942,-0.290118,-1.623466,1.710250,1.086883,-1.703200,-5.423048,0.044683,0.063348,0.000000,-0.157936,0.040628,-0.000000
4.360000,1.439948,1.278917,-1.408964,0.781892,1.217357,-0.175280,-0.622079,0.421050,0.064769,-0.279154,-1.640655,1.654962,1.104349,-1.738044,-5.608609,0.043091,0.063748,0.000000,-0.160500,0.039289,0.000000
4.370000,1.447735,1.291111,-1.410713,0.775658,1.221485,-0.174551,-0.624815,0.404556,0.081036,-0.268030,-1.658207,1.598028,1.120286,-1.772421,-5.774891,0.041473,0.064134,0.000000,-0.163094,0.037909,-0.000000
4.380000,1.455461,1.303346,-1.412455,0.769396,1.225448,-0.173661,-0.627439,0.387885,0.096725,-0.256754,-1.676100,1.539528,1.134705,-1.805953,-5.922029,0.039829,0.064506,0.000000,-0.165713,0.036490,-0.000000
4.390000,1.463123,1.315620,-1.414186,0.763109,1.229242,-0.172618,-0.629950,0.371033,0.111822,-0.245341,-1.694322,1.479651,1.147618,-1.838260,-6.050157,0.038159,0.064864,0.000000,-0.168355,0.035034,-0.000000
4.400000,1.470723,1.327930,-1.415906,0.756798,1.232868,-0.171427,-0.632346,0.353997,0.126314,-0.233806,-1.712860,1.418587,1.159035,-1.868964,-6.159410,0.036462,0.065208,0.000000,-0.171014,0.033545,-0.000000
4.410000,1.478259,1.340277,-1.417614,0.750463,1.236322,-0.170094,-0.634625,0.336775,0.140189,-0.222160,-1.731704,1.356443,1.168842,-1.897450,-6.247849,0.034739,0.065536,0.000000,-0.173687,0.032024,0.000000
4.420000,1.485732,1.352656,-1.419308,0.744106,1.239603,-0.168625,-0.636788,0.319362,0.153440,-0.210429,-1.750812,1.293599,1.177190,-1.923607,-6.317938,0.032988,0.065848,0.000000,-0.176369,0.030476,0.000000
4.430000,1.493141,1.365068,-1.420986,0.737727,1.242708,-0.167027,-0.638834,0.301758,0.166059,-0.198621,-1.770168,1.230144,1.184105,-1.947084,-6.370063,0.031211,0.066145,0.000000,-0.179054,0.028904,0.000000
4.440000,1.500486,1.377510,-1.422648,0.731329,1.245637,-0.165306,-0.640761,0.283958,0.178041,-0.186751,-1.789743,1.166256,1.189614,-1.967531,-6.404614,0.029407,0.066427,0.000000,-0.181738,0.027311,0.000000
4.450000,1.507768,1.389980,-1.424292,0.724912,1.248387,-0.163468,-0.642569,0.265962,0.189383,-0.174833,-1.809507,1.102109,1.193742,-1.984601,-6.421978,0.027577,0.066692,0.000000,-0.184415,0.025700,0.000000
4.460000,1.514985,1.402477,-1.425917,0.718478,1.250956,-0.161521,-0.644257,0.247767,0.200083,-0.162877,-1.829452,1.037814,1.196412,-1.997216,-6.421062,0.025719,0.066941,0.000000,-0.187084,0.024073,0.000000
4.470000,1.522137,1.414999,-1.427522,0.712028,1.253341,-0.159469,-0.645826,0.229373,0.210140,-0.150905,-1.849471,0.973676,1.197767,-2.005842,-6.403918,0.023835,0.067173,0.000000,-0.189732,0.022435,0.000000
4.480000,1.529225,1.427543,-1.429106,0.705562,1.255542,-0.157320,-0.647275,0.210778,0.219557,-0.138926,-1.869554,0.909788,1.197846,-2.010221,-6.371118,0.021924,0.067389,0.000000,-0.192355,0.020789,0.000000
4.490000,1.536248,1.440109,-1.430668,0.699083,1.257556,-0.155080,-0.648605,0.191982,0.228337,-0.126952,-1.889660,0.846304,1.196688,-2.010092,-6.323232,0.019988,0.067589,0.000000,-0.194948,0.019137,0.000000
4.500000,1.543207,1.452694,-1.432207,0.692590,1.259381,-0.152755,-0.649814,0.172985,0.236485,-0.114996,-1.909740,0.783372,1.194332,-2.005194,-6.260829,0.018026,0.067772,0.000000,-0.197506,0.017483,0.000000
4.510000,1.550100,1.465296,-1.433723,0.686087,1.261015,-0.150352,-0.650905,0.153787,0.244006,-0.103067,-1.929787,0.721099,1.190746,-1.994251,-6.183608,0.016038,0.067939,0.000000,-0.200025,0.015828,0.000000
4.520000,1.556928,1.477913,-1.435214,0.679573,1.262456,-0.147877,-0.651876,0.134389,0.250910,-0.091182,-1.949654,0.659705,1.186049,-1.978143,-6.093117,0.014025,0.068089,0.000000,-0.202491,0.014178,0.000000
4.530000,1.563692,1.490544,-1.436680,0.673050,1.263703,-0.145336,-0.652728,0.114794,0.257204,-0.079349,-1.969332,0.599279,1.180288,-1.956735,-5.990036,0.011988,0.068222,0.000000,-0.204902,0.012533,0.000000
4.540000,1.570389,1.503187,-1.438121,0.666519,1.264752,-0.142735,-0.653463,0.095003,0.262899,-0.067579,-1.988770,0.539944,1.173512,-1.929890,-5.875040,0.009927,0.068340,0.000000,-0.207251,0.010898,0.000000
4.550000,1.577022,1.515839,-1.439535,0.659981,1.265602,-0.140080,-0.654080,0.075020,0.268007,-0.055882,-2.007912,0.481815,1.165768,-1.897474,-5.748808,0.007843,0.068440,0.000000,-0.209532,0.009274,-0.000000
4.560000,1.583589,1.528498,-1.440922,0.653437,1.266251,-0.137377,-0.654581,0.054846,0.272539,-0.044266,-2.026744,0.424990,1.157087,-1.858250,-5.611702,0.005737,0.068525,0.000000,-0.211745,0.007663,-0.000000
4.570000,1.590091,1.541163,-1.442282,0.646890,1.266698,-0.134631,-0.654966,0.034486,0.276511,-0.032742,-2.045107,0.369600,1.147535,-1.813318,-5.464753,0.003609,0.068594,0.000000,-0.213873,0.006069,0.000000
4.580000,1.596527,1.553831,-1.443615,0.640338,1.266941,-0.131848,-0.655236,0.013945,0.279937,-0.021318,-2.062991,0.315726,1.137164,-1.762675,-5.308674,0.001460,0.068647,0.000000,-0.215914,0.004494,0.000000
4.590000,1.602897,1.566501,-1.444919,0.633785,1.266977,-0.129034,-0.655393,-0.006772,0.282831,-0.010002,-2.080341,0.263455,1.126023,-1.706320,-5.144182,-0.000709,0.068684,0.000000,-0.217863,0.002938,-0.000000
4.600000,1.609203,1.579170,-1.446195,0.627231,1.266805,-0.126194,-0.655437,-0.027660,0.285211,0.001200,-2.097099,0.212868,1.114163,-1.644253,-4.971993,-0.002897,0.068705,0.000000,-0.219716,0.001405,0.000000
4.610000,1.615442,1.591837,-1.447443,0.620677,1.266423,-0.123332,-0.655369,-0.048712,0.287094,0.012279,-2.113246,0.164044,1.101631,-1.575487,-4.792971,-0.005103,0.068712,0.000000,-0.221470,-0.000103,0.000000
4.620000,1.621616,1.604498,-1.448662,0.614124,1.265830,-0.120453,-0.655191,-0.069922,0.288498,0.023230,-2.128634,0.117036,1.088480,-1.501126,-4.607663,-0.007326,0.068703,0.000000,-0.223112,-0.001586,0.000000
4.630000,1.627725,1.617152,-1.449852,0.607573,1.265024,-0.117563,-0.654905,-0.091282,0.289441,0.034047,-2.143250,0.071909,1.074760,-1.421291,-4.416768,-0.009565,0.068680,0.000000,-0.224641,-0.003042,-0.000000
4.640000,1.633768,1.629798,-1.451013,0.601026,1.264004,-0.114666,-0.654511,-0.112784,0.289943,0.044724,-2.157042,0.028717,1.060522,-1.336099,-4.220982,-0.011819,0.068643,0.000000,-0.226053,-0.004469,0.000000
4.650000,1.639745,1.642432,-1.452145,0.594483,1.262768,-0.111766,-0.654011,-0.134420,0.290022,0.055256,-2.169955,-0.012496,1.045816,-1.245671,-4.021003,-0.014086,0.068591,0.000000,-0.227343,-0.005866,0.000000
4.660000,1.645657,1.655052,-1.453248,0.587946,1.261315,-0.108867,-0.653406,-0.156181,0.289700,0.065638,-2.181968,-0.051672,1.030720,-1.149382,-3.818013,-0.016365,0.068525,0.000000,-0.228511,-0.007232,-0.000000
4.670000,1.651504,1.667657,-1.454323,0.581416,1.259644,-0.105973,-0.652699,-0.178056,0.288996,0.075868,-2.192959,-0.088825,1.015253,-1.048186,-3.612164,-0.018655,0.068446,0.000000,-0.229546,-0.008566,0.000000
4.680000,1.657286,1.680245,-1.455368,0.574893,1.257753,-0.103088,-0.651889,-0.200036,0.287930,0.085942,-2.202916,-0.123908,0.999464,-0.942293,-3.404094,-0.020956,0.068354,0.000000,-0.230448,-0.009868,-0.000000
4.690000,1.663002,1.692812,-1.456384,0.568378,1.255643,-0.100216,-0.650980,-0.222111,0.286524,0.095856,-2.211790,-0.156902,0.983398,-0.831915,-3.194441,-0.023264,0.068249,0.000000,-0.231215,-0.011136,-0.000000
4.700000,1.668653,1.705357,-1.457372,0.561873,1.253311,-0.097359,-0.649973,-0.244268,0.284799,0.105609,-2.219540,-0.187794,0.967103,-0.717260,-2.983841,-0.025579,0.068132,0.000000,-0.231842,-0.012371,-0.000000
4.710000,1.674239,1.717877,-1.458332,0.555379,1.250757,-0.094521,-0.648869,-0.266498,0.282776,0.115195,-2.226139,-0.216550,0.950689,-0.598102,-2.773634,-0.027900,0.068002,0.000000,-0.232331,-0.013571,-0.000000
4.720000,1.679761,1.730371,-1.459263,0.548896,1.247981,-0.091704,-0.647670,-0.288787,0.280475,0.124619,-2.231509,-0.243236,0.934131,-0.475142,-2.563669,-0.030226,0.067860,0.000000,-0.232675,-0.014737,-0.000000
4.730000,1.685217,1.742836,-1.460166,0.542426,1.244981,-0.088912,-0.646377,-0.311124,0.277918,0.133878,-2.235630,-0.267826,0.917471,-0.348644,-2.354500,-0.032553,0.067707,0.000000,-0.232873,-0.015869,-0.000000
4.740000,1.690609,1.755270,-1.461041,0.535969,1.241758,-0.086147,-0.644993,-0.333496,0.275126,0.142969,-2.238471,-0.290330,0.900746,-0.218874,-2.146677,-0.034882,0.067543,0.000000,-0.232925,-0.016966,0.000000
4.750000,1.695937,1.767670,-1.461889,0.529526,1.238311,-0.083410,-0.643518,-0.355889,0.272118,0.151892,-2.239998,-0.310766,0.883997,-0.086094,-1.940752,-0.037211,0.067368,0.000000,-0.232830,-0.018029,0.000000
4.760000,1.701200,1.780035,-1.462709,0.523099,1.234640,-0.080705,-0.641955,-0.378291,0.268918,0.160647,-2.240187,-0.329121,0.867311,0.049535,-1.738097,-0.039539,0.067182,0.000000,-0.232586,-0.019057,0.000000
4.770000,1.706399,1.792363,-1.463503,0.516688,1.230745,-0.078032,-0.640306,-0.400688,0.265543,0.169237,-2.239004,-0.345501,0.850673,0.187633,-1.538343,-0.041863,0.066986,0.000000,-0.232193,-0.020052,-0.000000
4.780000,1.711534,1.804650,-1.464270,0.510293,1.226627,-0.075394,-0.638571,-0.423066,0.262014,0.177660,-2.236428,-0.359899,0.834117,0.327921,-1.341941,-0.044182,0.066781,0.000000,-0.231651,-0.021013,0.000000
4.790000,1.716605,1.816894,-1.465011,0.503917,1.222284,-0.072793,-0.636753,-0.445412,0.258351,0.185919,-2.232439,-0.372352,0.817675,0.470124,-1.149343,-0.046495,0.066566,0.000000,-0.230960,-0.021942,-0.000000
4.800000,1.721612,1.829095,-1.465726,0.497558,1.217719,-0.070228,-0.634853,-0.467710,0.254573,0.194014,-2.227020,-0.382900,0.801382,0.613964,-0.961000,-0.048801,0.066342,0.000000,-0.230119,-0.022838,-0.000000
4.810000,1.726556,1.841248,-1.466416,0.491220,1.212930,-0.067701,-0.632873,-0.489947,0.250700,0.201946,-2.220147,-0.391553,0.785316,0.758974,-0.778233,-0.051097,0.066109,0.000000,-0.229129,-0.023702,0.000000
4.820000,1.731437,1.853352,-1.467080,0.484901,1.207920,-0.065214,-0.630815,-0.512109,0.246748,0.209719,-2.211828,-0.398443,0.769459,0.905090,-0.600518,-0.053383,0.065867,0.000000,-0.227992,-0.024536,0.000000
4.830000,1.736254,1.865406,-1.467720,0.478604,1.202688,-0.062767,-0.628679,-0.534179,0.242737,0.217336,-2.202043,-0.403582,0.753840,1.052060,-0.428198,-0.055656,0.065617,0.000000,-0.226708,-0.025340,-0.000000
4.840000,1.741009,1.877405,-1.468336,0.472328,1.197237,-0.060360,-0.626469,-0.556145,0.238682,0.224797,-2.190785,-0.407026,0.738486,1.199630,-0.261618,-0.057916,0.065359,0.000000,-0.225278,-0.026114,0.000000
4.850000,1.745701,1.889350,-1.468927,0.466075,1.191566,-0.057993,-0.624184,-0.577990,0.234602,0.232106,-2.178049,-0.408834,0.723425,1.347546,-0.101124,-0.060161,0.065094,0.000000,-0.223704,-0.026860,-0.000000
4.860000,1.750330,1.901236,-1.469496,0.459844,1.185677,-0.055668,-0.621827,-0.599700,0.230511,0.239265,-2.163817,-0.409035,0.708719,1.495132,0.052053,-0.062390,0.064821,0.000000,-0.221984,-0.027578,-0.000000
4.870000,1.754898,1.913062,-1.470041,0.453638,1.179572,-0.053383,-0.619399,-0.621261,0.226426,0.246280,-2.148128,-0.407776,0.694358,1.642609,0.198564,-0.064601,0.064542,0.000000,-0.220125,-0.028271,0.000000
4.880000,1.759403,1.924827,-1.470563,0.447457,1.173253,-0.051139,-0.616902,-0.642658,0.222361,0.253154,-2.130966,-0.405086,0.680364,1.789777,0.338173,-0.066792,0.064255,0.000000,-0.218126,-0.028938,0.000000
4.890000,1.763847,1.936527,-1.471064,0.441300,1.166720,-0.048936,-0.614337,-0.663876,0.218329,0.259889,-2.112334,-0.401036,0.666762,1.936432,0.470643,-0.068963,0.063962,0.000000,-0.215988,-0.029581,-0.000000
4.900000,1.768229,1.948160,-1.471542,0.435170,1.159976,-0.046772,-0.611705,-0.684900,0.214344,0.266490,-2.092239,-0.395698,0.653576,2.082373,0.595740,-0.071111,0.063662,0.000000,-0.213714,-0.030201,-0.000000
4.910000,1.772550,1.959726,-1.471999,0.429067,1.153022,-0.044648,-0.609007,-0.705715,0.210419,0.272961,-2.070667,-0.389111,0.640854,2.226837,0.712328,-0.073237,0.063356,0.000000,-0.211304,-0.030799,-0.000000
4.920000,1.776811,1.971220,-1.472435,0.422990,1.145862,-0.042564,-0.606246,-0.726308,0.206566,0.279308,-2.047681,-0.381437,0.628591,2.370253,0.821180,-0.075337,0.063044,0.000000,-0.208763,-0.031377,-0.000000
4.930000,1.781010,1.982642,-1.472851,0.416942,1.138497,-0.040517,-0.603421,-0.746664,0.202794,0.285534,-2.023266,-0.372714,0.616807,2.512487,0.922170,-0.077411,0.062727,0.000000,-0.206092,-0.031935,-0.000000
4.940000,1.785150,1.993989,-1.473246,0.410922,1.130930,-0.038507,-0.600535,-0.766769,0.199115,0.291646,-1.997436,-0.363021,0.605524,2.653408,1.015170,-0.079458,0.062404,0.000000,-0.203292,-0.032476,0.000000
4.950000,1.789229,2.005260,-1.473621,0.404931,1.123163,-0.036534,-0.597589,-0.786608,0.195537,0.297647,-1.970203,-0.352438,0.594760,2.792883,1.100055,-0.081477,0.062075,0.000000,-0.200365,-0.032999,0.000000
4.960000,1.793248,2.016452,-1.473977,0.398970,1.115198,-0.034596,-0.594583,-0.806168,0.192069,0.303542,-1.941560,-0.341011,0.584563,2.930182,1.175787,-0.083465,0.061742,0.000000,-0.197311,-0.033506,0.000000
4.970000,1.797208,2.027563,-1.474313,0.393040,1.107040,-0.032692,-0.591518,-0.825435,0.188719,0.309339,-1.911578,-0.328909,0.574924,3.065842,1.243263,-0.085423,0.061403,0.000000,-0.194137,-0.034000,0.000000
4.980000,1.801109,2.038592,-1.474631,0.387140,1.098691,-0.030822,-0.588396,-0.844395,0.185493,0.315042,-1.880248,-0.316173,0.565859,3.199803,1.302468,-0.087348,0.061059,0.000000,-0.190841,-0.034480,0.000000
4.990000,1.804951,2.049537,-1.474930,0.381272,1.090153,-0.028982,-0.585218,-0.863036,0.182397,0.320658,-1.847588,-0.302887,0.557387,3.332005,1.353388,-0.089239,0.060711,0.000000,-0.187427,-0.034949,0.000000
5.000000,1.808735,2.060395,-1.475210,0.375436,1.081431,-0.027173,-0.581984,-0.881343,0.179437,0.326192,-1.813614,-0.289133,0.549523,3.462390,1.396009,-0.091096,0.060357,0.000000,-0.183895,-0.035407,-0.000000
5.010000,1.812460,2.071165,-1.475473,0.369633,1.072528,-0.025393,-0.578694,-0.899303,0.176616,0.331649,-1.778326,-0.274958,0.542321,3.590372,1.429387,-0.092916,0.060000,0.000000,-0.180245,-0.035856,-0.000000
5.020000,1.816128,2.081845,-1.475718,0.363862,1.063446,-0.023640,-0.575351,-0.916905,0.173939,0.337039,-1.741790,-0.260531,0.535759,3.716481,1.454551,-0.094700,0.059637,0.000000,-0.176483,-0.036298,0.000000
5.030000,1.819737,2.092433,-1.475946,0.358126,1.054191,-0.021914,-0.571954,-0.934135,0.171406,0.342366,-1.704002,-0.245894,0.529848,3.840722,1.471598,-0.096446,0.059270,0.000000,-0.172607,-0.036733,-0.000000
5.040000,1.823290,2.102928,-1.476157,0.352423,1.044765,-0.020212,-0.568504,-0.950981,0.169021,0.347638,-1.664981,-0.231126,0.524601,3.963098,1.480628,-0.098152,0.058899,0.000000,-0.168620,-0.037162,0.000000
5.050000,1.826786,2.113328,-1.476350,0.346756,1.035173,-0.018533,-0.565001,-0.967430,0.166784,0.352860,-1.624746,-0.216308,0.520031,4.083614,1.481740,-0.099818,0.058524,0.000000,-0.164522,-0.037588,-0.000000
5.060000,1.830225,2.123631,-1.476527,0.341124,1.025418,-0.016876,-0.561447,-0.983472,0.164695,0.358038,-1.583302,-0.201481,0.516211,4.201928,1.474106,-0.101442,0.058144,0.000000,-0.160314,-0.038011,-0.000000
5.070000,1.833609,2.133836,-1.476688,0.335527,1.015504,-0.015238,-0.557840,-0.999093,0.162754,0.363184,-1.540698,-0.186810,0.513085,4.318433,1.458867,-0.103024,0.057759,0.000000,-0.155999,-0.038432,-0.000000
5.080000,1.836936,2.143940,-1.476832,0.329967,1.005437,-0.013620,-0.554183,-1.014282,0.160958,0.368302,-1.496939,-0.172328,0.510660,4.433178,1.436233,-0.104562,0.057371,0.000000,-0.151575,-0.038853,-0.000000
5.090000,1.840208,2.153944,-1.476960,0.324444,0.995220,-0.012019,-0.550475,-1.029028,0.159306,0.373400,-1.452040,-0.158109,0.508940,4.546208,1.406418,-0.106055,0.056978,0.000000,-0.147045,-0.039276,0.000000
5.100000,1.843425,2.163844,-1.477073,0.318958,0.984858,-0.010433,-0.546715,-1.043319,0.157795,0.378484,-1.406020,-0.144223,0.507931,4.657573,1.369634,-0.107502,0.056581,0.000000,-0.142408,-0.039700,-0.000000
5.110000,1.846587,2.173640,-1.477169,0.313510,0.974355,-0.008862,-0.542905,-1.057144,0.156421,0.383557,-1.358891,-0.130704,0.507734,4.767233,1.325215,-0.108903,0.056180,0.000000,-0.137666,-0.040127,0.000000
5.120000,1.849695,2.183331,-1.477250,0.308100,0.963717,-0.007305,-0.539044,-1.070493,0.155179,0.388636,-1.310677,-0.117701,0.508247,4.875332,1.274360,-0.110255,0.055774,0.000000,-0.132817,-0.040559,-0.000000
5.130000,1.852750,2.192914,-1.477315,0.302729,0.952947,-0.005758,-0.535132,-1.083354,0.154065,0.393724,-1.261389,-0.105237,0.509462,4.981926,1.217389,-0.111559,0.055363,0.000000,-0.127864,-0.040996,0.000000
5.140000,1.855750,2.202389,-1.477365,0.297397,0.942051,-0.004223,-0.531169,-1.095717,0.153073,0.398828,-1.211043,-0.093372,0.511375,5.087073,1.154621,-0.112812,0.054949,0.000000,-0.122806,-0.041440,0.000000
5.150000,1.858698,2.211755,-1.477400,0.292106,0.931035,-0.002697,-0.527156,-1.107572,0.152196,0.403954,-1.159653,-0.082163,0.513977,5.190831,1.086376,-0.114014,0.054529,0.000000,-0.117642,-0.041892,-0.000000
5.160000,1.861592,2.221010,-1.477419,0.286854,0.919902,-0.001179,-0.523090,-1.118907,0.151427,0.409104,-1.107240,-0.071632,0.517401,5.293494,1.012225,-0.115165,0.054105,0.000000,-0.112376,-0.042351,-0.000000
5.170000,1.864435,2.230153,-1.477423,0.281644,0.908658,0.000332,-0.518973,-1.129713,0.150760,0.414298,-1.053798,-0.061901,0.521485,5.394854,0.933328,-0.116262,0.053677,0.000000,-0.107003,-0.042820,0.000000
5.180000,1.867225,2.239183,-1.477413,0.276475,0.897309,0.001837,-0.514804,-1.139980,0.150187,0.419536,-0.999348,-0.052980,0.526207,5.494939,0.850099,-0.117304,0.053243,0.000000,-0.101525,-0.043300,0.000000
5.190000,1.869964,2.248099,-1.477387,0.271348,0.885860,0.003336,-0.510582,-1.149697,0.149698,0.424824,-0.943903,-0.044912,0.531543,5.593777,0.762950,-0.118292,0.052805,0.000000,-0.095943,-0.043791,-0.000000
5.200000,1.872652,2.256900,-1.477346,0.266264,0.874317,0.004831,-0.506307,-1.158854,0.149286,0.430169,-0.887476,-0.037733,0.537470,5.691397,0.672292,-0.119223,0.052361,0.000000,-0.090256,-0.044293,-0.000000
5.210000,1.875290,2.265585,-1.477290,0.261222,0.862685,0.006322,-0.501979,-1.167443,0.148940,0.435569,-0.830102,-0.031456,0.544140,5.788403,0.578017,-0.120097,0.051912,0.000000,-0.084467,-0.044807,-0.000000
5.220000,1.877877,2.274153,-1.477219,0.256224,0.850970,0.007810,-0.497596,-1.175453,0.148653,0.441046,-0.771738,-0.026158,0.551332,5.884177,0.481121,-0.120912,0.051458,0.000000,-0.078570,-0.045335,-0.000000
5.230000,1.880415,2.282604,-1.477134,0.251270,0.839178,0.009295,-0.493158,-1.182875,0.148414,0.446597,-0.712423,-0.021840,0.559004,5.978678,0.382080,-0.121668,0.050999,0.000000,-0.072569,-0.045877,-0.000000
5.240000,1.882903,2.290936,-1.477033,0.246361,0.827315,0.010779,-0.488664,-1.189699,0.148213,0.452227,-0.652169,-0.018522,0.567110,6.071863,0.281370,-0.122363,0.050534,0.000000,-0.066464,-0.046433,-0.000000
5.250000,1.885342,2.299150,-1.476918,0.241497,0.815386,0.012260,-0.484113,-1.195915,0.148040,0.457941,-0.590990,-0.016217,0.575607,6.163690,0.179466,-0.122997,0.050063,0.000000,-0.060255,-0.047004,0.000000
5.260000,1.887733,2.307244,-1.476788,0.236679,0.803399,0.013739,-0.479505,-1.201516,0.147885,0.463733,-0.528935,-0.014928,0.584651,6.255003,0.076664,-0.123568,0.049587,0.000000,-0.053947,-0.047588,-0.000000
5.270000,1.890076,2.315218,-1.476643,0.231907,0.791358,0.015218,-0.474838,-1.206491,0.147738,0.469625,-0.465934,-0.014676,0.593971,6.344765,-0.026357,-0.124075,0.049104,0.000000,-0.047533,-0.048188,-0.000000
5.280000,1.892371,2.323071,-1.476484,0.227183,0.779271,0.016694,-0.470112,-1.210831,0.147588,0.475613,-0.402045,-0.015454,0.603499,6.432827,-0.129101,-0.124518,0.048615,0.000000,-0.041017,-0.048804,-0.000000
5.290000,1.894619,2.330803,-1.476310,0.222505,0.767144,0.018169,-0.465325,-1.214529,0.147426,0.481696,-0.337284,-0.017256,0.613163,6.519037,-0.231068,-0.124895,0.048120,0.000000,-0.034401,-0.049434,0.000000
5.300000,1.896821,2.338414,-1.476121,0.217876,0.754982,0.019643,-0.460478,-1.217574,0.147240,0.487876,-0.271671,-0.020071,0.622896,6.603245,-0.331762,-0.125206,0.047619,0.000000,-0.027686,-0.050080,0.000000
5.310000,1.898977,2.345902,-1.475917,0.213296,0.742794,0.021114,-0.455568,-1.219960,0.147021,0.494145,-0.205270,-0.023895,0.632838,6.686412,-0.430432,-0.125449,0.047111,0.000000,-0.020880,-0.050739,-0.000000
5.320000,1.901087,2.353269,-1.475698,0.208765,0.730586,0.022583,-0.450594,-1.221677,0.146759,0.500523,-0.138000,-0.028683,0.642684,6.767141,-0.526864,-0.125623,0.046596,0.000000,-0.013973,-0.051414,-0.000000
5.330000,1.903153,2.360514,-1.475465,0.204284,0.718363,0.024049,-0.445557,-1.222717,0.146444,0.506999,-0.069937,-0.034423,0.652338,6.845143,-0.620589,-0.125728,0.046074,0.000000,-0.006974,-0.052103,0.000000
5.340000,1.905173,2.367637,-1.475217,0.199854,0.706133,0.025512,-0.440454,-1.223073,0.146067,0.513569,-0.001108,-0.041085,0.661706,6.920134,-0.711140,-0.125762,0.045546,0.000000,0.000114,-0.052806,-0.000000
5.350000,1.907150,2.374637,-1.474955,0.195475,0.693904,0.026970,-0.435285,-1.222737,0.145619,0.520231,0.068455,-0.048634,0.670693,6.991826,-0.798050,-0.125725,0.045010,0.000000,0.007289,-0.053521,-0.000000
5.360000,1.909083,2.381515,-1.474678,0.191149,0.681681,0.028424,-0.430049,-1.221702,0.145091,0.526974,0.138669,-0.057061,0.679394,7.061143,-0.880126,-0.125616,0.044467,0.000000,0.014540,-0.054248,0.000000
5.370000,1.910973,2.388270,-1.474386,0.186875,0.669472,0.029872,-0.424745,-1.219961,0.144476,0.533809,0.209610,-0.066254,0.687499,7.126440,-0.957715,-0.125434,0.043916,0.000000,0.021875,-0.054987,-0.000000
5.380000,1.912821,2.394904,-1.474081,0.182654,0.657284,0.031313,-0.419373,-1.217508,0.143764,0.540721,0.281183,-0.076199,0.694892,7.187283,-1.030438,-0.125178,0.043358,0.000000,0.029283,-0.055736,0.000000
5.390000,1.914626,2.401416,-1.473760,0.178488,0.645124,0.032747,-0.413931,-1.214336,0.142949,0.547704,0.353340,-0.086845,0.701454,7.243236,-1.097919,-0.124848,0.042793,0.000000,0.036760,-0.056494,-0.000000
5.400000,1.916391,2.407807,-1.473426,0.174376,0.633000,0.034172,-0.408419,-1.210439,0.142025,0.554747,0.426030,-0.098138,0.707066,7.293865,-1.159777,-0.124443,0.042219,0.000000,0.044299,-0.057259,-0.000000
5.410000,1.918114,2.414076,-1.473077,0.170319,0.620918,0.035587,-0.402836,-1.205814,0.140984,0.561836,0.499152,-0.110067,0.711755,7.339891,-1.214461,-0.123962,0.041638,0.000000,0.051888,-0.058031,0.000000
5.420000,1.919797,2.420225,-1.472714,0.166319,0.608886,0.036991,-0.397182,-1.200455,0.139822,0.568972,0.572755,-0.122459,0.715240,7.379581,-1.262909,-0.123405,0.041050,0.000000,0.059532,-0.058807,0.000000
5.430000,1.921441,2.426254,-1.472337,0.162376,0.596911,0.038383,-0.391456,-1.194358,0.138533,0.576136,0.646721,-0.135304,0.717386,7.412361,-1.304889,-0.122771,0.040453,0.000000,0.067217,-0.059587,-0.000000
5.440000,1.923045,2.432164,-1.471946,0.158490,0.585001,0.039761,-0.385659,-1.187519,0.137114,0.583315,0.720977,-0.148535,0.718057,7.437653,-1.340165,-0.122061,0.039849,0.000000,0.074935,-0.060367,0.000000
5.450000,1.924611,2.437955,-1.471542,0.154663,0.573164,0.041125,-0.379790,-1.179937,0.135562,0.590492,0.795447,-0.162084,0.717117,7.454882,-1.368503,-0.121273,0.039237,0.000000,0.082677,-0.061147,0.000000
5.460000,1.926138,2.443627,-1.471124,0.150895,0.561405,0.042472,-0.373849,-1.171610,0.133871,0.597648,0.870009,-0.175941,0.714503,7.464416,-1.388153,-0.120407,0.038617,0.000000,0.090430,-0.061923,0.000000
5.470000,1.927629,2.449183,-1.470692,0.147186,0.549734,0.043802,-0.367837,-1.162537,0.132042,0.604773,0.944662,-0.189891,0.709998,7.464618,-1.400582,-0.119464,0.037989,0.000000,0.098192,-0.062694,0.000000
5.480000,1.929082,2.454622,-1.470248,0.143538,0.538157,0.045112,-0.361754,-1.152717,0.130073,0.611842,1.019268,-0.203928,0.703457,7.454798,-1.405740,-0.118443,0.037354,0.000000,0.105946,-0.063458,-0.000000
5.490000,1.930500,2.459946,-1.469790,0.139951,0.526682,0.046403,-0.355600,-1.142152,0.127964,0.618834,1.093722,-0.217981,0.694734,7.434263,-1.403580,-0.117345,0.036711,0.000000,0.113682,-0.064211,-0.000000
5.500000,1.931881,2.465156,-1.469320,0.136427,0.515316,0.047671,-0.349378,-1.130844,0.125714,0.625729,1.167915,-0.231975,0.683685,7.402321,-1.394053,-0.116170,0.036061,0.000000,0.121388,-0.064951,-0.000000
5.510000,1.933228,2.470253,-1.468837,0.132964,0.504068,0.048916,-0.343086,-1.118795,0.123324,0.632500,1.241704,-0.245904,0.670153,7.358896,-1.375435,-0.114917,0.035404,0.000000,0.129047,-0.065676,-0.000000
5.520000,1.934541,2.475238,-1.468342,0.129565,0.492943,0.050137,-0.336728,-1.106011,0.120796,0.639123,1.315023,-0.259535,0.654006,7.302606,-1.349556,-0.113589,0.034739,0.000000,0.136651,-0.066382,-0.000000
5.530000,1.935820,2.480112,-1.467834,0.126230,0.481950,0.051332,-0.330304,-1.092497,0.118134,0.645571,1.387711,-0.272871,0.635101,7.232683,-1.316574,-0.112185,0.034067,0.000000,0.144183,-0.067066,-0.000000
5.540000,1.937066,2.484878,-1.467315,0.122959,0.471095,0.052499,-0.323817,-1.078260,0.115340,0.651816,1.459628,-0.285843,0.613295,7.148362,-1.276643,-0.110706,0.033389,0.000000,0.151627,-0.067726,0.000000
5.550000,1.938279,2.489535,-1.466784,0.119754,0.460387,0.053638,-0.317269,-1.063308,0.112419,0.657827,1.530627,-0.298381,0.588445,7.048874,-1.229921,-0.109152,0.032705,0.000000,0.158968,-0.068358,0.000000
5.560000,1.939461,2.494086,-1.466242,0.116614,0.449832,0.054747,-0.310662,-1.047651,0.109374,0.663537,1.600547,-0.310477,0.561353,6.933599,-1.175110,-0.107527,0.032014,0.000000,0.166188,-0.068955,-0.000000
5.570000,1.940612,2.498532,-1.465690,0.113541,0.439436,0.055825,-0.303999,-1.031301,0.106211,0.669000,1.669237,-0.321927,0.530814,6.801606,-1.113997,-0.105829,0.031318,0.000000,0.173271,-0.069522,0.000000
5.580000,1.941732,2.502875,-1.465126,0.110534,0.429208,0.056871,-0.297283,-1.014271,0.102937,0.674141,1.736521,-0.332737,0.496569,6.652111,-1.046917,-0.104062,0.030616,0.000000,0.180198,-0.070051,0.000000
5.590000,1.942823,2.507117,-1.464552,0.107595,0.419153,0.057884,-0.290517,-0.996576,0.099559,0.678919,1.802218,-0.342847,0.458359,6.484328,-0.974205,-0.102226,0.029909,0.000000,0.186950,-0.070539,-0.000000
5.600000,1.943884,2.511259,-1.463969,0.104724,0.409278,0.058862,-0.283706,-0.978232,0.096083,0.683294,1.866144,-0.352203,0.415925,6.297473,-0.896193,-0.100323,0.029198,0.000000,0.193508,-0.070981,-0.000000
5.610000,1.944917,2.515303,-1.463375,0.101921,0.399590,0.059805,-0.276851,-0.959259,0.092516,0.687423,1.928095,-0.360834,0.363944,6.090935,-0.811194,-0.098356,0.028482,0.000000,0.199851,-0.071394,-0.000000
5.620000,1.945923,2.519251,-1.462773,0.099187,0.390095,0.060712,-0.269959,-0.939678,0.088869,0.690785,1.987886,-0.368503,0.307840,5.863735,-0.721813,-0.096327,0.027763,0.000000,0.205959,-0.071723,0.000000
5.630000,1.946901,2.523105,-1.462161,0.096522,0.380799,0.061582,-0.263037,-0.919510,0.085149,0.693567,2.045298,-0.375258,0.247975,5.615064,-0.628631,-0.094238,0.027041,0.000000,0.211810,-0.071989,-0.000000
5.640000,1.947854,2.526868,-1.461541,0.093926,0.371707,0.062415,-0.256090,-0.898780,0.081367,0.695733,2.100113,-0.381065,0.184710,5.344118,-0.532229,-0.092092,0.026317,0.000000,0.217382,-0.072188,0.000000
5.650000,1.948780,2.530540,-1.460913,0.091400,0.362825,0.063209,-0.249125,-0.877517,0.077531,0.697251,2.152103,-0.385894,0.118407,5.050090,-0.433190,-0.089891,0.025592,0.000000,0.222651,-0.072316,-0.000000
5.660000,1.949682,2.534125,-1.460277,0.088944,0.354158,0.063965,-0.242151,-0.855748,0.073653,0.697786,2.201073,-0.389701,0.057162,4.731213,-0.332620,-0.087640,0.024866,0.000000,0.227599,-0.072340,0.000000
5.670000,1.950559,2.537624,-1.459634,0.086557,0.345712,0.064682,-0.235171,-0.833506,0.069741,0.698038,2.246689,-0.392518,-0.007346,4.387758,-0.230512,-0.085341,0.024140,0.000000,0.232191,-0.072332,-0.000000
5.680000,1.951413,2.541040,-1.458983,0.084241,0.337490,0.065360,-0.228192,-0.810826,0.065806,0.697626,2.288744,-0.394308,-0.075705,4.019038,-0.127383,-0.082997,0.023414,0.000000,0.236407,-0.072252,0.000000
5.690000,1.952244,2.544375,-1.458327,0.081993,0.329496,0.065998,-0.221221,-0.787744,0.061858,0.696509,2.326983,-0.395064,-0.148500,3.624364,-0.023752,-0.080614,0.022690,0.000000,0.240223,-0.072098,0.000000
5.700000,1.953053,2.547631,-1.457664,0.079816,0.321736,0.066597,-0.214264,-0.764300,0.057908,0.694639,2.361142,-0.394783,-0.226317,3.203048,0.079864,-0.078194,0.021968,0.000000,0.243610,-0.071864,0.000000
5.710000,1.953841,2.550810,-1.456995,0.077708,0.314212,0.067157,-0.207328,-0.740536,0.053965,0.692195,2.390952,-0.393504,-0.315575,2.754417,0.183861,-0.075743,0.021248,0.000000,0.246544,-0.071569,0.000000
5.720000,1.954608,2.553916,-1.456321,0.075669,0.306926,0.067677,-0.200424,-0.716496,0.050041,0.688570,2.416137,-0.391150,-0.410313,2.277765,0.286696,-0.073265,0.020532,0.000000,0.248996,-0.071152,0.000000
