time,x,y,z,vx,vy,vz,ax,ay,az,jx,jy,jz,sx,sy,sz
0.000000,-2.326147,-1.418942,1.417550,-0.018014,-0.003805,0.005151,0.768662,-0.209060,-0.065157,-24.899712,4.192749,0.479948,682.471185,-25.347132,-0.538437
0.010000,-2.326292,-1.418990,1.417598,-0.011463,-0.005690,0.004523,0.552054,-0.168355,-0.060384,-18.590933,3.952583,0.474438,581.022923,-22.723124,-0.569089
0.020000,-2.326382,-1.419054,1.417640,-0.006779,-0.007179,0.003943,0.393633,-0.129924,-0.055669,-13.245363,3.737558,0.468461,489.741836,-20.317788,-0.631245
0.030000,-2.326432,-1.419132,1.417677,-0.003427,-0.008295,0.003409,0.284267,-0.093527,-0.051018,-8.763953,3.545521,0.461718,408.103557,-18.124495,-0.721887
0.040000,-2.326454,-1.419219,1.417709,-0.000958,-0.009056,0.002922,0.215787,-0.058944,-0.046438,-5.052897,3.374383,0.453938,335.583720,-16.136616,-0.837992
0.050000,-2.326453,-1.419312,1.417736,0.001001,-0.009479,0.002480,0.180937,-0.025977,-0.041943,-2.023632,3.222126,0.444883,271.657959,-14.347524,-0.976541
0.060000,-2.326435,-1.419408,1.417758,0.002752,-0.009580,0.002083,0.173320,0.005555,-0.037546,0.407161,3.086792,0.434343,215.801907,-12.750589,-1.134513
0.070000,-2.326398,-1.419503,1.417777,0.004539,-0.009372,0.001729,0.187346,0.035809,-0.033262,2.317557,2.966495,0.422138,167.491197,-11.339183,-1.308888
0.080000,-2.326343,-1.419594,1.417793,0.006555,-0.008868,0.001417,0.218180,0.064929,-0.029109,3.780388,2.859412,0.408120,126.201463,-10.106678,-1.496645
0.090000,-2.326266,-1.419679,1.417806,0.008945,-0.008077,0.001146,0.261688,0.093036,-0.025106,4.863242,2.763788,0.392171,91.408339,-9.046445,-1.694764
0.100000,-2.326162,-1.419755,1.417816,0.011819,-0.007010,0.000915,0.314386,0.120237,-0.021272,5.628463,2.677931,0.374201,62.587458,-8.151857,-1.900224
0.110000,-2.326028,-1.419818,1.417824,0.015254,-0.005675,0.000720,0.373389,0.146622,-0.017629,6.133151,2.600220,0.354152,39.214454,-7.416284,-2.110005
0.120000,-2.325855,-1.419867,1.417831,0.019300,-0.004080,0.000561,0.436354,0.172263,-0.014196,6.429163,2.529098,0.331996,20.764959,-6.833098,-2.321086
0.130000,-2.325639,-1.419899,1.417836,0.023988,-0.002232,0.000436,0.501433,0.197221,-0.010996,6.563114,2.463073,0.307736,6.714609,-6.395670,-2.530446
0.140000,-2.325373,-1.419911,1.417839,0.029331,-0.000138,0.000341,0.567215,0.221537,-0.008049,6.576371,2.400721,0.281403,-3.460965,-6.097373,-2.735066
0.150000,-2.325051,-1.419901,1.417842,0.035331,0.002197,0.000274,0.632679,0.245243,-0.005375,6.505062,2.340683,0.253060,-10.286127,-5.931578,-2.931925
0.160000,-2.324665,-1.419867,1.417845,0.041981,0.004765,0.000232,0.697138,0.268354,-0.002994,6.380069,2.281669,0.222800,-14.285246,-5.891656,-3.118002
0.170000,-2.324209,-1.419805,1.417847,0.049269,0.007562,0.000213,0.760187,0.290875,-0.000925,6.227030,2.222453,0.190746,-15.982687,-5.970979,-3.290276
0.180000,-2.323677,-1.419715,1.417849,0.057180,0.010581,0.000213,0.821653,0.312799,0.000816,6.066340,2.161874,0.157051,-15.902816,-6.162919,-3.445728
0.190000,-2.323063,-1.419593,1.417852,0.065697,0.013816,0.000228,0.881540,0.334105,0.002212,5.913150,2.098841,0.121898,-14.570001,-6.460847,-3.581337
0.200000,-2.322361,-1.419438,1.417854,0.074806,0.017261,0.000256,0.939975,0.354764,0.003250,5.777368,2.032326,0.085500,-12.508607,-6.858134,-3.694082
0.210000,-2.321566,-1.419247,1.417857,0.084444,0.020907,0.000292,0.998961,0.374805,0.003916,5.829593,1.967732,0.047904,-14.434121,-7.508857,-3.775926
0.220000,-2.320670,-1.419019,1.417860,0.094723,0.024752,0.000333,1.056506,0.394096,0.004205,5.676433,1.889102,0.009852,-16.166591,-8.226004,-3.829479
0.230000,-2.319669,-1.418751,1.417863,0.105569,0.028786,0.000375,1.112435,0.412563,0.004112,5.506867,1.803078,-0.028583,-17.717185,-8.983270,-3.852336
0.240000,-2.318557,-1.418442,1.417867,0.116966,0.033000,0.000414,1.166594,0.430132,0.003633,5.322658,1.709391,-0.067084,-19.097073,-9.754348,-3.842090
0.250000,-2.317328,-1.418091,1.417872,0.128894,0.037385,0.000446,1.218845,0.446725,0.002771,5.125457,1.608033,-0.105307,-20.317421,-10.512931,-3.796335
0.260000,-2.315978,-1.417694,1.417876,0.141335,0.041933,0.000468,1.269097,0.462191,0.001520,4.919729,1.492206,-0.143735,-21.463263,-11.054506,-3.691177
0.270000,-2.314500,-1.417251,1.417881,0.154268,0.046628,0.000475,1.317204,0.476552,-0.000099,4.699977,1.379131,-0.179964,-22.462857,-11.552796,-3.548330
0.280000,-2.312891,-1.416761,1.417886,0.167671,0.051460,0.000465,1.363066,0.489758,-0.002074,4.470952,1.261309,-0.214577,-23.318327,-12.003314,-3.368018
0.290000,-2.311145,-1.416222,1.417890,0.181522,0.056419,0.000433,1.406597,0.501764,-0.004384,4.234084,1.139239,-0.247200,-24.031796,-12.401576,-3.150466
0.300000,-2.309259,-1.415632,1.417894,0.195795,0.061492,0.000376,1.447726,0.512530,-0.007010,3.990782,1.013467,-0.277463,-24.605388,-12.743097,-2.895901
0.310000,-2.307228,-1.414992,1.417898,0.210468,0.066666,0.000292,1.486379,0.522001,-0.009933,3.740869,0.882588,-0.305772,-25.001664,-12.973042,-2.584925
0.320000,-2.305048,-1.414299,1.417900,0.225515,0.071928,0.000177,1.522532,0.530175,-0.013114,3.489419,0.751957,-0.329923,-25.267154,-13.143441,-2.239787
0.330000,-2.302716,-1.413553,1.417901,0.240911,0.077265,0.000029,1.556160,0.537036,-0.016519,3.235939,0.619912,-0.350463,-25.408825,-13.255974,-1.863117
0.340000,-2.300229,-1.412753,1.417900,0.256630,0.082664,-0.000154,1.587248,0.542571,-0.020111,2.981632,0.487024,-0.367089,-25.433644,-13.312320,-1.457540
0.350000,-2.297583,-1.411899,1.417898,0.272647,0.088112,-0.000374,1.615794,0.546775,-0.023847,2.727632,0.353847,-0.379526,-25.348580,-13.314161,-1.025686
0.360000,-2.294775,-1.410991,1.417893,0.288937,0.093595,-0.000631,1.641806,0.549647,-0.027692,2.475009,0.220741,-0.388098,-25.160729,-13.258724,-0.555680
0.370000,-2.291803,-1.410027,1.417885,0.305475,0.099101,-0.000928,1.665302,0.551193,-0.031593,2.224743,0.088643,-0.391223,-24.876914,-13.152687,-0.066428
0.380000,-2.288665,-1.409009,1.417874,0.322235,0.104615,-0.001263,1.686312,0.551424,-0.035500,1.977767,-0.042151,-0.389377,-24.504086,-12.998274,0.437668
0.390000,-2.285358,-1.407935,1.417860,0.339193,0.110125,-0.001637,1.704871,0.550355,-0.039364,1.734935,-0.171169,-0.382435,-24.049197,-12.797711,0.952204
0.400000,-2.281880,-1.406806,1.417841,0.356324,0.115618,-0.002050,1.721027,0.548008,-0.043132,1.497033,-0.297959,-0.370313,-23.519198,-12.553223,1.472776
0.410000,-2.278231,-1.405623,1.417818,0.373606,0.121081,-0.002500,1.734834,0.544405,-0.046754,1.265036,-0.422081,-0.353099,-22.927553,-12.267381,1.998134
0.420000,-2.274408,-1.404385,1.417791,0.391013,0.126502,-0.002984,1.746348,0.539576,-0.050176,1.038980,-0.543160,-0.330502,-22.273903,-11.942021,2.520335
0.430000,-2.270410,-1.403093,1.417759,0.408525,0.131868,-0.003502,1.755636,0.533554,-0.053347,0.819744,-0.660797,-0.302719,-21.564404,-11.579327,3.034590
0.440000,-2.266237,-1.401748,1.417721,0.426119,0.137169,-0.004050,1.762768,0.526373,-0.056214,0.607857,-0.774629,-0.269853,-20.805211,-11.181481,3.536110
0.450000,-2.261888,-1.400350,1.417678,0.443774,0.142392,-0.004625,1.767819,0.518075,-0.058727,0.403785,-0.884316,-0.232055,-20.002476,-10.750666,4.020105
0.460000,-2.257361,-1.398900,1.417628,0.461469,0.147527,-0.005224,1.770874,0.508702,-0.060836,0.208199,-0.989533,-0.189217,-19.169085,-10.289223,4.474003
0.470000,-2.252658,-1.397400,1.417573,0.479185,0.152563,-0.005841,1.772011,0.498300,-0.062497,0.020811,-1.089998,-0.142315,-18.303637,-9.799158,4.901749
0.480000,-2.247778,-1.395849,1.417511,0.496903,0.157490,-0.006472,1.771319,0.486919,-0.063668,-0.157785,-1.185428,-0.091282,-17.411464,-9.282633,5.299509
0.490000,-2.242720,-1.394250,1.417444,0.514605,0.162298,-0.007112,1.768886,0.474609,-0.064310,-0.327347,-1.275570,-0.036437,-16.497896,-8.741810,5.663443
0.500000,-2.237486,-1.392604,1.417369,0.532275,0.166979,-0.007756,1.764803,0.461426,-0.064385,-0.487689,-1.360191,0.021862,-15.568263,-8.178854,5.989717
0.510000,-2.232075,-1.390911,1.417288,0.549896,0.171524,-0.008398,1.759166,0.447424,-0.063856,-0.638387,-1.439073,0.083829,-14.635221,-7.596113,6.259076
0.520000,-2.226488,-1.389174,1.417201,0.567453,0.175925,-0.009032,1.752066,0.432664,-0.062701,-0.780046,-1.512045,0.147587,-13.695879,-6.995543,6.484989
0.530000,-2.220726,-1.387393,1.417108,0.584933,0.180175,-0.009650,1.743597,0.417204,-0.060897,-0.912298,-1.578932,0.213378,-12.754669,-6.379282,6.665508
0.540000,-2.214790,-1.385571,1.417008,0.602321,0.184267,-0.010247,1.733852,0.401106,-0.058428,-1.035147,-1.639586,0.280739,-11.816025,-5.749473,6.798682
0.550000,-2.208680,-1.383708,1.416903,0.619606,0.188195,-0.010816,1.722925,0.384433,-0.055279,-1.148642,-1.693883,0.349187,-10.884380,-5.108254,6.882564
0.560000,-2.202398,-1.381807,1.416792,0.636776,0.191954,-0.011351,1.710914,0.367250,-0.051434,-1.252522,-1.741675,0.418943,-9.973044,-4.458900,6.896937
0.570000,-2.195945,-1.379870,1.416676,0.653821,0.195538,-0.011843,1.697905,0.349622,-0.046900,-1.347756,-1.782986,0.487772,-9.076487,-3.802280,6.860356
0.580000,-2.189322,-1.377897,1.416555,0.670731,0.198945,-0.012286,1.683988,0.331613,-0.041681,-1.434112,-1.817703,0.555981,-8.198055,-3.140395,6.773111
0.590000,-2.182531,-1.375892,1.416431,0.687498,0.202170,-0.012674,1.669252,0.313290,-0.035785,-1.511788,-1.845783,0.623066,-7.341094,-2.475247,6.635490
0.600000,-2.175573,-1.373855,1.416302,0.704113,0.205210,-0.013000,1.653781,0.294719,-0.029225,-1.581016,-1.867204,0.688524,-6.508950,-1.808838,6.447781
0.610000,-2.168449,-1.371788,1.416171,0.720571,0.208063,-0.013257,1.637663,0.275969,-0.022014,-1.641650,-1.881864,0.752506,-5.715356,-1.145656,6.193829
0.620000,-2.161162,-1.369694,1.416037,0.736865,0.210729,-0.013438,1.620974,0.257104,-0.014184,-1.694961,-1.890014,0.812976,-4.952000,-0.484913,5.892379
0.630000,-2.153712,-1.367574,1.415902,0.752989,0.213205,-0.013539,1.603789,0.238190,-0.005765,-1.740798,-1.891576,0.870203,-4.220957,0.171694,5.545733
0.640000,-2.146103,-1.365430,1.415767,0.768939,0.215493,-0.013552,1.586181,0.219294,0.003208,-1.779495,-1.886600,0.923748,-3.524302,0.822468,5.156192
0.650000,-2.138334,-1.363265,1.415632,0.784711,0.217591,-0.013473,1.568221,0.200480,0.012696,-1.811405,-1.875152,0.973192,-2.864108,1.465711,4.726057
0.660000,-2.130409,-1.361079,1.415498,0.800302,0.219503,-0.013296,1.549979,0.181814,0.022661,-1.836478,-1.857178,1.018585,-2.253249,2.096222,4.246420
0.670000,-2.122329,-1.358875,1.415366,0.815710,0.221228,-0.013018,1.531512,0.163357,0.033051,-1.856119,-1.833106,1.058505,-1.681679,2.716237,3.732165
0.680000,-2.114095,-1.356655,1.415238,0.830932,0.222771,-0.012634,1.512875,0.145172,0.043814,-1.870245,-1.802892,1.093125,-1.150150,3.324485,3.186968
0.690000,-2.105711,-1.354421,1.415114,0.845967,0.224133,-0.012141,1.494124,0.127320,0.054895,-1.879258,-1.766660,1.122154,-0.659414,3.919699,2.614502
0.700000,-2.097177,-1.352173,1.414995,0.860814,0.225318,-0.011535,1.475306,0.109859,0.066237,-1.883571,-1.724546,1.145337,-0.210225,4.500610,2.018442
0.710000,-2.088495,-1.349915,1.414883,0.875473,0.226332,-0.010816,1.456471,0.092849,0.077783,-1.883223,-1.676556,1.162630,0.187042,5.062317,1.398078
0.720000,-2.079668,-1.347647,1.414779,0.889944,0.227177,-0.009979,1.437654,0.076346,0.089469,-1.879540,-1.623192,1.173442,0.542437,5.607628,0.762005
0.730000,-2.070697,-1.345372,1.414684,0.904226,0.227860,-0.009026,1.418891,0.060403,0.101231,-1.872512,-1.564461,1.177832,0.856386,6.135720,0.114436
0.740000,-2.061584,-1.343090,1.414599,0.918322,0.228387,-0.007955,1.400213,0.045074,0.113004,-1.862550,-1.500538,1.175706,1.129315,6.645769,-0.540419
0.750000,-2.052331,-1.340805,1.414525,0.932231,0.228764,-0.006766,1.381648,0.030409,0.124723,-1.850061,-1.431608,1.167013,1.361651,7.136951,-1.198349
0.760000,-2.042940,-1.338516,1.414464,0.945955,0.228998,-0.005461,1.363222,0.016459,0.136321,-1.835170,-1.357755,1.151652,1.546735,7.605680,-1.852853
0.770000,-2.033412,-1.336225,1.414417,0.959496,0.229096,-0.004040,1.344951,0.003269,0.147734,-1.818940,-1.279438,1.129871,1.692945,8.054233,-2.502289
0.780000,-2.023751,-1.333934,1.414384,0.972855,0.229066,-0.002507,1.326848,-0.009115,0.158897,-1.801436,-1.196739,1.101637,1.801576,8.482125,-3.142726
0.790000,-2.013956,-1.331644,1.414367,0.986033,0.228916,-0.000863,1.308925,-0.020651,0.169746,-1.783029,-1.109866,1.067059,1.873921,8.888868,-3.770232
0.800000,-2.004030,-1.329356,1.414367,0.999034,0.228656,0.000887,1.291189,-0.031299,0.180218,-1.764074,-1.019034,1.026288,1.911274,9.273979,-4.380877
0.810000,-1.993976,-1.327071,1.414385,1.011858,0.228293,0.002740,1.273646,-0.041019,0.190248,-1.744761,-0.924412,0.979212,1.911018,9.635736,-4.963174
0.820000,-1.983794,-1.324791,1.414422,1.024507,0.227839,0.004690,1.256293,-0.049776,0.199783,-1.725786,-0.826339,0.926767,1.878836,9.975041,-5.521672
0.830000,-1.973486,-1.322515,1.414479,1.036984,0.227301,0.006734,1.239128,-0.057535,0.208766,-1.707285,-0.724987,0.868868,1.816502,10.291557,-6.053366
0.840000,-1.963055,-1.320245,1.414557,1.049290,0.226691,0.008864,1.222145,-0.064265,0.217143,-1.689550,-0.620585,0.805799,1.725787,10.584950,-6.555249
0.850000,-1.952501,-1.317981,1.414657,1.061428,0.226019,0.011074,1.205334,-0.069937,0.224865,-1.672858,-0.513366,0.737872,1.608466,10.854886,-7.024317
0.860000,-1.941827,-1.315725,1.414779,1.073398,0.225296,0.013359,1.188684,-0.074524,0.231881,-1.657425,-0.403577,0.665004,1.465333,11.101304,-7.446758
0.870000,-1.931034,-1.313475,1.414924,1.085202,0.224533,0.015709,1.172180,-0.078001,0.238152,-1.643584,-0.291433,0.588580,1.299258,11.323562,-7.831694
0.880000,-1.920123,-1.311234,1.415093,1.096842,0.223740,0.018119,1.155806,-0.080346,0.243640,-1.631510,-0.177188,0.508501,1.112134,11.521291,-8.177441
0.890000,-1.909097,-1.309001,1.415287,1.108318,0.222930,0.020580,1.139543,-0.081539,0.248311,-1.621405,-0.061090,0.425167,0.905851,11.694124,-8.482318
0.900000,-1.897957,-1.306776,1.415505,1.119633,0.222113,0.023083,1.123371,-0.081562,0.252134,-1.613451,0.056610,0.338996,0.682303,11.841692,-8.744641
0.910000,-1.886705,-1.304558,1.415748,1.130786,0.221302,0.025619,1.107266,-0.080402,0.255078,-1.607854,0.175619,0.249949,0.444490,11.964631,-8.950781
0.920000,-1.875342,-1.302349,1.416017,1.141778,0.220509,0.028181,1.091206,-0.078046,0.257127,-1.604656,0.295771,0.159596,0.193061,12.061445,-9.112465
0.930000,-1.863870,-1.300148,1.416312,1.152610,0.219745,0.030759,1.075165,-0.074484,0.258265,-1.604033,0.416759,0.067849,-0.070229,12.131644,-9.229470
0.940000,-1.852291,-1.297954,1.416633,1.163282,0.219023,0.033343,1.059116,-0.069709,0.258481,-1.606094,0.538314,-0.024844,-0.343622,12.174737,-9.301578
0.950000,-1.840605,-1.295768,1.416979,1.173792,0.218355,0.035925,1.043033,-0.063717,0.257767,-1.610933,0.660162,-0.118033,-0.625362,12.190232,-9.328568
0.960000,-1.828815,-1.293587,1.417351,1.184142,0.217753,0.038496,1.026887,-0.056506,0.256115,-1.618709,0.782005,-0.211709,-0.911538,12.178121,-9.298997
0.970000,-1.816923,-1.291412,1.417749,1.194330,0.217229,0.041045,1.010650,-0.048078,0.253534,-1.629277,0.903607,-0.304366,-1.202813,12.137372,-9.225242
0.980000,-1.804929,-1.289242,1.418172,1.204355,0.216796,0.043563,0.994292,-0.038436,0.250031,-1.642777,1.024656,-0.396070,-1.497692,12.067433,-9.108456
0.990000,-1.792836,-1.287076,1.418620,1.214215,0.216464,0.046042,0.977784,-0.027587,0.245617,-1.659238,1.144857,-0.486396,-1.794683,11.967755,-8.949793
1.000000,-1.780646,-1.284912,1.419092,1.223910,0.216248,0.048473,0.961097,-0.015542,0.240309,-1.678673,1.263910,-0.574930,-2.092293,11.837787,-8.750406
1.010000,-1.768359,-1.282751,1.419589,1.233436,0.216158,0.050846,0.944200,-0.002313,0.234122,-1.701175,1.381573,-0.661628,-2.386642,11.675375,-8.502445
1.020000,-1.755977,-1.280589,1.420109,1.242793,0.216205,0.053153,0.927064,0.012083,0.227085,-1.726505,1.497385,-0.745257,-2.678917,11.481770,-8.217171
1.030000,-1.743503,-1.278426,1.420652,1.251977,0.216403,0.055385,0.909660,0.027627,0.219227,-1.754743,1.611103,-0.825855,-2.967918,11.256617,-7.896839
1.040000,-1.730938,-1.276260,1.421217,1.260985,0.216762,0.057534,0.891959,0.044297,0.210579,-1.785849,1.722411,-0.903084,-3.252443,10.999563,-7.543706
1.050000,-1.718284,-1.274090,1.421802,1.269815,0.217293,0.059594,0.873934,0.062067,0.201178,-1.819772,1.830987,-0.976627,-3.531293,10.710253,-7.160028
1.060000,-1.705543,-1.271914,1.422408,1.278463,0.218007,0.061556,0.855554,0.080909,0.191058,-1.856544,1.936702,-1.046417,-3.800935,10.383418,-6.742349
1.070000,-1.692716,-1.269729,1.423033,1.286925,0.218914,0.063413,0.836794,0.100789,0.180264,-1.895869,2.038767,-1.111645,-4.062787,10.024221,-6.299337
1.080000,-1.679805,-1.267535,1.423676,1.295197,0.220026,0.065159,0.817628,0.121672,0.168840,-1.937771,2.137079,-1.172329,-4.315932,9.632911,-5.833948
1.090000,-1.666812,-1.265328,1.424336,1.303276,0.221351,0.066788,0.798030,0.143517,0.156833,-1.982156,2.231319,-1.228259,-4.559457,9.209736,-5.349138
1.100000,-1.653740,-1.263107,1.425011,1.311156,0.222899,0.068294,0.777977,0.166283,0.144291,-2.028925,2.321169,-1.279257,-4.792446,8.754943,-4.847861
1.110000,-1.640590,-1.260869,1.425701,1.318834,0.224679,0.069672,0.757443,0.189929,0.131264,-2.078065,2.406663,-1.325247,-5.011488,8.259958,-4.331175
1.120000,-1.627364,-1.258613,1.426404,1.326304,0.226700,0.070918,0.736408,0.214400,0.117804,-2.129225,2.486661,-1.365930,-5.218471,7.734931,-3.804168
1.130000,-1.614065,-1.256335,1.427119,1.333560,0.228970,0.072027,0.714852,0.239644,0.103963,-2.182393,2.561265,-1.401306,-5.412784,7.181193,-3.270026
1.140000,-1.600694,-1.254032,1.427844,1.340599,0.231496,0.072996,0.692754,0.265606,0.089796,-2.237437,2.630194,-1.431318,-5.593817,6.600070,-2.731940
1.150000,-1.587253,-1.251704,1.428579,1.347413,0.234284,0.073822,0.670097,0.292228,0.075355,-2.294223,2.693180,-1.455942,-5.760962,5.992892,-2.193096
1.160000,-1.573746,-1.249346,1.429320,1.353999,0.237342,0.074502,0.646863,0.319454,0.060695,-2.352734,2.750474,-1.475121,-5.910425,5.348256,-1.658386
1.170000,-1.560174,-1.246956,1.430068,1.360349,0.240675,0.075035,0.623038,0.347216,0.045870,-2.412524,2.800641,-1.489052,-6.045171,4.681780,-1.129086
1.180000,-1.546540,-1.244531,1.430821,1.366458,0.244288,0.075419,0.598608,0.375445,0.030932,-2.473587,2.844046,-1.497730,-6.164978,3.996352,-0.608178
1.190000,-1.532846,-1.242069,1.431576,1.372319,0.248185,0.075653,0.573562,0.404073,0.015933,-2.535773,2.880514,-1.501254,-6.269629,3.294859,-0.098641
1.200000,-1.519094,-1.239567,1.432333,1.377927,0.252370,0.075738,0.547890,0.433031,0.000923,-2.598929,2.909899,-1.499751,-6.358903,2.580190,0.396545
1.210000,-1.505288,-1.237021,1.433090,1.383275,0.256846,0.075672,0.521579,0.462254,-0.014044,-2.663103,2.932728,-1.493212,-6.427439,1.838947,0.870146
1.220000,-1.491430,-1.234429,1.433846,1.388356,0.261616,0.075457,0.494626,0.491661,-0.028925,-2.727656,2.947387,-1.482224,-6.480788,1.092295,1.323957
1.230000,-1.477522,-1.231788,1.434599,1.393165,0.266680,0.075094,0.467024,0.521177,-0.043674,-2.792669,2.954573,-1.466807,-6.519360,0.345117,1.755520
1.240000,-1.463567,-1.229094,1.435347,1.397695,0.272040,0.074584,0.438771,0.550728,-0.058247,-2.857996,2.954304,-1.447196,-6.543566,-0.397705,2.162374
1.250000,-1.449569,-1.226346,1.436090,1.401938,0.277694,0.073930,0.409864,0.580239,-0.072605,-2.923494,2.946649,-1.423650,-6.553814,-1.131291,2.542061
1.260000,-1.435530,-1.223539,1.436826,1.405890,0.283644,0.073133,0.380300,0.609640,-0.086705,-2.989098,2.932044,-1.396165,-6.548727,-1.858811,2.884836
1.270000,-1.421452,-1.220672,1.437552,1.409542,0.289887,0.072197,0.350082,0.638856,-0.100517,-3.054505,2.909899,-1.365732,-6.530721,-2.566345,3.196419
1.280000,-1.407340,-1.217741,1.438269,1.412889,0.296420,0.071124,0.319211,0.667815,-0.114010,-3.119671,2.880803,-1.332346,-6.500425,-3.248026,3.475241
1.290000,-1.393195,-1.214743,1.438974,1.415924,0.303242,0.069917,0.287690,0.696449,-0.127155,-3.184475,2.845044,-1.296342,-6.458468,-3.897985,3.719738
1.300000,-1.379022,-1.211675,1.439667,1.418641,0.310348,0.068582,0.255523,0.724695,-0.139929,-3.248804,2.802969,-1.258071,-6.405478,-4.510357,3.928341
1.310000,-1.364824,-1.208535,1.440346,1.421032,0.317734,0.067120,0.222717,0.752482,-0.152303,-3.312431,2.754317,-1.217240,-6.345096,-5.062486,4.082810
1.320000,-1.350603,-1.205319,1.441009,1.423093,0.325396,0.065537,0.189277,0.779763,-0.164269,-3.375537,2.701127,-1.175793,-6.274570,-5.567346,4.200295
1.330000,-1.336363,-1.202026,1.441656,1.424816,0.333328,0.063836,0.155209,0.806488,-0.175816,-3.437889,2.643141,-1.133355,-6.194160,-6.021127,4.281269
1.340000,-1.322108,-1.198652,1.442285,1.426195,0.341524,0.062022,0.120522,0.832612,-0.186934,-3.499388,2.580888,-1.090288,-6.104126,-6.420017,4.326207
1.350000,-1.307840,-1.195195,1.442896,1.427224,0.349978,0.060099,0.085224,0.858094,-0.197621,-3.559940,2.514936,-1.046950,-6.004728,-6.760203,4.335585
1.360000,-1.293564,-1.191651,1.443487,1.427897,0.358684,0.058071,0.049334,0.882876,-0.207865,-3.618783,2.443678,-1.002855,-5.913150,-6.981946,4.288695
1.370000,-1.279283,-1.188020,1.444057,1.428209,0.367634,0.055943,0.012852,0.906961,-0.217680,-3.677412,2.372999,-0.960337,-5.810655,-7.144211,4.209788
1.380000,-1.265001,-1.184298,1.444606,1.428152,0.376821,0.053718,-0.024211,0.930332,-0.227075,-3.734953,2.300982,-0.918756,-5.695433,-7.250032,4.101932
1.390000,-1.250722,-1.180483,1.445131,1.427723,0.386238,0.051402,-0.061843,0.952978,-0.236059,-3.791272,2.228176,-0.878385,-5.565669,-7.302447,3.968197
1.400000,-1.236448,-1.176573,1.445633,1.426914,0.395878,0.048999,-0.100032,0.974894,-0.244647,-3.846212,2.155101,-0.839468,-5.419552,-7.304490,3.811650
1.410000,-1.222185,-1.172565,1.446111,1.425720,0.405734,0.046511,-0.138760,0.996069,-0.252852,-3.899406,2.081177,-0.802027,-5.260238,-7.232254,3.630550
1.420000,-1.207935,-1.168457,1.446563,1.424137,0.415797,0.043943,-0.178014,1.016521,-0.260694,-3.951127,2.009389,-0.766696,-5.080338,-7.119018,3.433365
1.430000,-1.193703,-1.164248,1.446989,1.422158,0.426062,0.041298,-0.217776,1.036261,-0.268193,-4.000936,1.938912,-0.733401,-4.877432,-6.971119,3.223752
1.440000,-1.179493,-1.159935,1.447389,1.419780,0.436520,0.038580,-0.258026,1.055305,-0.275369,-4.048590,1.870061,-0.702250,-4.649099,-6.794893,3.005369
1.450000,-1.165309,-1.155517,1.447761,1.416996,0.447166,0.035792,-0.298740,1.073669,-0.282245,-4.093825,1.803088,-0.673311,-4.392918,-6.596675,2.781874
1.460000,-1.151155,-1.150991,1.448105,1.413803,0.457991,0.032936,-0.339899,1.091381,-0.288847,-4.136889,1.738863,-0.646965,-4.092795,-6.400042,2.565712
1.470000,-1.137034,-1.146357,1.448419,1.410197,0.468991,0.030016,-0.381467,1.108453,-0.295192,-4.176188,1.675895,-0.622385,-3.761657,-6.191978,2.350677
1.480000,-1.122952,-1.141611,1.448705,1.406173,0.480158,0.027033,-0.423411,1.124906,-0.301301,-4.212017,1.615047,-0.599939,-3.398759,-5.976706,2.139351
1.490000,-1.108912,-1.136753,1.448960,1.401728,0.491487,0.023990,-0.465695,1.140761,-0.307197,-4.244055,1.556371,-0.579577,-3.003355,-5.758451,1.934314
1.500000,-1.094919,-1.131781,1.449184,1.396858,0.502972,0.020890,-0.508279,1.156040,-0.312900,-4.271973,1.499874,-0.561223,-2.574698,-5.541438,1.738148
1.510000,-1.080977,-1.126693,1.449377,1.391561,0.514606,0.017733,-0.551124,1.170771,-0.318431,-4.295815,1.446010,-0.545084,-2.102443,-5.342183,1.561224
1.520000,-1.067089,-1.121488,1.449539,1.385835,0.526385,0.014522,-0.594179,1.184967,-0.323807,-4.314338,1.393552,-0.530303,-1.596618,-5.151113,1.397380
1.530000,-1.053261,-1.116165,1.449668,1.379677,0.538303,0.011257,-0.637393,1.198648,-0.329043,-4.327637,1.342952,-0.517088,-1.057654,-4.970947,1.248245
1.540000,-1.039497,-1.110722,1.449764,1.373087,0.550356,0.007941,-0.680713,1.211832,-0.334153,-4.335382,1.294088,-0.505284,-0.485977,-4.804405,1.115446
1.550000,-1.025801,-1.105157,1.449826,1.366063,0.562539,0.004575,-0.724081,1.224535,-0.339153,-4.337249,1.246809,-0.494719,0.117981,-4.654205,1.000611
1.560000,-1.012177,-1.099470,1.449855,1.358605,0.574845,0.001159,-0.767442,1.236779,-0.344054,-4.333360,1.201522,-0.485439,0.764988,-4.537770,0.911263
1.570000,-0.998630,-1.093660,1.449849,1.350714,0.587272,-0.002306,-0.810726,1.248569,-0.348864,-4.322349,1.156644,-0.476688,1.442049,-4.441316,0.842412
1.580000,-0.985164,-1.087725,1.449809,1.342391,0.599815,-0.005818,-0.853866,1.259915,-0.353590,-4.304425,1.112626,-0.468520,2.147362,-4.365761,0.794965
1.590000,-0.971784,-1.081663,1.449733,1.333638,0.612469,-0.009378,-0.896791,1.270824,-0.358236,-4.279314,1.069256,-0.460715,2.879127,-4.312024,0.769828
1.600000,-0.958493,-1.075475,1.449621,1.324456,0.625230,-0.012983,-0.939427,1.281301,-0.362804,-4.246760,1.026310,-0.453046,3.635545,-4.281024,0.767907
1.610000,-0.945296,-1.069158,1.449473,1.314851,0.638094,-0.016633,-0.981704,1.291356,-0.367298,-4.206874,0.984042,-0.445471,4.423599,-4.285956,0.795014
1.620000,-0.932198,-1.062713,1.449288,1.304824,0.651056,-0.020328,-1.023538,1.300982,-0.371712,-4.158613,0.941062,-0.437283,5.231629,-4.313959,0.846548
1.630000,-0.919201,-1.056137,1.449066,1.294381,0.664112,-0.024067,-1.064849,1.310176,-0.376042,-4.102185,0.897688,-0.428457,6.056761,-4.364448,0.922815
1.640000,-0.906311,-1.049430,1.448807,1.283529,0.677258,-0.027849,-1.105554,1.318933,-0.380279,-4.037431,0.853700,-0.418743,6.896118,-4.436841,1.024118
1.650000,-0.893532,-1.042591,1.448509,1.272273,0.690489,-0.031672,-1.145570,1.327247,-0.384413,-3.964224,0.808880,-0.407890,7.746825,-4.530552,1.150764
1.660000,-0.880867,-1.035620,1.448173,1.260620,0.703801,-0.035537,-1.184813,1.335112,-0.388434,-3.882740,0.763453,-0.395871,8.612929,-4.655955,1.308827
1.670000,-0.868321,-1.028515,1.447798,1.248579,0.717190,-0.039441,-1.223195,1.342512,-0.392325,-3.792259,0.716188,-0.381887,9.483785,-4.800166,1.492136
1.680000,-0.855897,-1.021276,1.447384,1.236159,0.730650,-0.043383,-1.260629,1.349431,-0.396065,-3.693061,0.667394,-0.365946,10.355668,-4.961259,1.700290
1.690000,-0.843599,-1.013902,1.446931,1.223370,0.744177,-0.047361,-1.297028,1.355854,-0.399636,-3.585155,0.616913,-0.347800,11.224855,-5.137308,1.932888
1.700000,-0.831431,-1.006392,1.446437,1.210223,0.757765,-0.051375,-1.332303,1.361763,-0.403013,-3.468585,0.564604,-0.327208,12.087622,-5.326385,2.189527
1.710000,-0.819396,-0.998746,1.445903,1.196728,0.771410,-0.055421,-1.366373,1.367144,-0.406175,-3.343628,0.510738,-0.304265,12.945085,-5.536428,2.478267
1.720000,-0.807497,-0.990964,1.445328,1.182900,0.785106,-0.059497,-1.399148,1.371971,-0.409089,-3.209948,0.454289,-0.277946,13.788090,-5.754440,2.789211
1.730000,-0.795739,-0.983044,1.444713,1.168750,0.798847,-0.063602,-1.430544,1.376222,-0.411723,-3.067928,0.395634,-0.248412,14.612320,-5.977288,3.120922
1.740000,-0.784123,-0.974987,1.444056,1.154294,0.812628,-0.067731,-1.460479,1.379876,-0.414045,-2.917778,0.334738,-0.215463,15.413461,-6.201837,3.471961
1.750000,-0.772654,-0.966791,1.443358,1.139545,0.826443,-0.071881,-1.488873,1.382910,-0.416020,-2.759751,0.271602,-0.178913,16.187196,-6.424953,3.840894
1.760000,-0.761333,-0.958458,1.442619,1.124521,0.840284,-0.076050,-1.515648,1.385304,-0.417617,-2.594046,0.206555,-0.139094,16.926838,-6.651101,4.239001
1.770000,-0.750164,-0.949986,1.441837,1.109238,0.854147,-0.080232,-1.540730,1.387033,-0.418789,-2.421227,0.138948,-0.094656,17.630734,-6.868618,4.650569
1.780000,-0.739149,-0.941375,1.441014,1.093713,0.868023,-0.084424,-1.564050,1.388076,-0.419496,-2.241564,0.069225,-0.046048,18.294857,-7.073441,5.072603
1.790000,-0.728291,-0.932625,1.440149,1.077963,0.881906,-0.088620,-1.585540,1.388411,-0.419696,-2.055476,-0.002465,0.006821,18.915183,-7.261505,5.502108
1.800000,-0.717591,-0.923737,1.439241,1.062008,0.895789,-0.092816,-1.605139,1.388021,-0.419345,-1.863420,-0.075936,0.064009,19.487686,-7.428746,5.936089
1.810000,-0.707051,-0.914710,1.438292,1.045867,0.909664,-0.097005,-1.622794,1.386889,-0.418406,-1.666268,-0.150770,0.125042,20.017757,-7.575840,6.384327
1.820000,-0.696674,-0.905544,1.437301,1.029559,0.923524,-0.101182,-1.638448,1.385001,-0.416829,-1.463675,-0.227142,0.191115,20.490801,-7.693403,6.829488
1.830000,-0.686460,-0.896239,1.436269,1.013105,0.937361,-0.105339,-1.652053,1.382343,-0.414569,-1.256659,-0.304524,0.261606,20.901640,-7.776789,7.267013
1.840000,-0.676412,-0.886796,1.435195,0.996525,0.951168,-0.109471,-1.663568,1.378908,-0.411583,-1.045867,-0.382549,0.336415,21.245096,-7.821354,7.692342
1.850000,-0.666530,-0.877216,1.434079,0.979841,0.964937,-0.113569,-1.672960,1.374691,-0.407827,-0.831999,-0.460806,0.415397,21.515989,-7.822454,8.100917
1.860000,-0.656816,-0.867498,1.432923,0.963073,0.978660,-0.117625,-1.680181,1.369680,-0.403264,-0.614034,-0.539990,0.498174,21.664377,-7.746342,8.492929
1.870000,-0.647269,-0.857643,1.431727,0.946244,0.992328,-0.121631,-1.685237,1.363895,-0.397851,-0.396971,-0.616868,0.584955,21.735328,-7.621039,8.858487
1.880000,-0.637891,-0.847651,1.430491,0.929375,1.005935,-0.125579,-1.688120,1.357348,-0.391553,-0.179585,-0.692243,0.675239,21.729145,-7.445464,9.192450
1.890000,-0.628682,-0.837524,1.429216,0.912488,1.019473,-0.129459,-1.688830,1.350057,-0.384336,0.037356,-0.765606,0.768682,21.646131,-7.218534,9.489678
1.900000,-0.619641,-0.827262,1.427902,0.895606,1.032934,-0.133262,-1.687377,1.342044,-0.376170,0.253083,-0.836439,0.864893,21.486590,-6.939171,9.745029
1.910000,-0.610769,-0.816866,1.426551,0.878748,1.046312,-0.136979,-1.683764,1.333319,-0.367022,0.467856,-0.905969,0.964149,21.225001,-6.561901,9.935109
1.920000,-0.602066,-0.806336,1.425163,0.861937,1.059599,-0.140600,-1.678029,1.323938,-0.356881,0.678493,-0.969495,1.064243,20.890652,-6.135470,10.075266
1.930000,-0.593530,-0.795674,1.423739,0.845194,1.072788,-0.144114,-1.670206,1.313944,-0.345734,0.885438,-1.028529,1.165478,20.487010,-5.664232,10.162595
1.940000,-0.585162,-0.784881,1.422281,0.828540,1.085876,-0.147511,-1.660335,1.303384,-0.333570,1.088014,-1.082644,1.267309,20.017538,-5.152541,10.194190
1.950000,-0.576959,-0.773957,1.420789,0.811994,1.098854,-0.150782,-1.648463,1.292309,-0.320387,1.285581,-1.131459,1.369166,19.485703,-4.604751,10.167146
1.960000,-0.568922,-0.762904,1.419266,0.795577,1.111720,-0.153916,-1.634639,1.280766,-0.306180,1.477818,-1.175346,1.471269,18.887750,-4.007216,10.057796
1.970000,-0.561047,-0.751723,1.417712,0.779308,1.124469,-0.156902,-1.618927,1.268822,-0.290967,1.663476,-1.212323,1.571042,18.235248,-3.384495,9.886538
1.980000,-0.553335,-0.740415,1.416128,0.763204,1.137096,-0.159732,-1.601392,1.256541,-0.274765,1.842355,-1.242974,1.668792,17.532546,-2.743146,9.653008
1.990000,-0.545783,-0.728982,1.414518,0.747286,1.149599,-0.162394,-1.582104,1.243985,-0.257600,2.013974,-1.267146,1.763894,16.783994,-2.089728,9.356843
2.000000,-0.538388,-0.717424,1.412881,0.731568,1.161975,-0.164880,-1.561139,1.231220,-0.239499,2.177897,-1.284750,1.855719,15.993940,-1.430798,8.997679
2.010000,-0.531150,-0.705743,1.411221,0.716068,1.174222,-0.167181,-1.538566,1.218314,-0.220493,2.334405,-1.295510,1.944146,15.149656,-0.779375,8.562286
2.020000,-0.524066,-0.693940,1.409538,0.700801,1.186341,-0.169288,-1.514479,1.205331,-0.200631,2.481550,-1.300072,2.027332,14.274661,-0.134766,8.064743
2.030000,-0.517134,-0.682016,1.407835,0.685783,1.198329,-0.171191,-1.488965,1.192334,-0.179964,2.619818,-1.298247,2.105237,13.375395,0.497261,7.506262
2.040000,-0.510350,-0.669974,1.406115,0.671027,1.210187,-0.172884,-1.462113,1.179387,-0.158546,2.748998,-1.290188,2.177258,12.458299,1.110939,6.888057
2.050000,-0.503712,-0.657813,1.404378,0.656545,1.221917,-0.174360,-1.434016,1.166550,-0.136440,2.868946,-1.276108,2.242804,11.529813,1.700500,6.211339
2.060000,-0.497218,-0.645536,1.402628,0.642350,1.233519,-0.175611,-1.404776,1.153892,-0.113706,2.978567,-1.255557,2.302000,10.621930,2.241964,5.459496
2.070000,-0.490864,-0.633143,1.400867,0.628453,1.244995,-0.176632,-1.374475,1.141457,-0.090426,3.080238,-1.230567,2.352609,9.712410,2.750007,4.653747
2.080000,-0.484648,-0.620636,1.399097,0.614864,1.256349,-0.177418,-1.343202,1.129297,-0.066681,3.172820,-1.200680,2.394906,8.804565,3.221091,3.797487
2.090000,-0.478566,-0.608016,1.397319,0.601592,1.267582,-0.177965,-1.311048,1.117458,-0.042557,3.256346,-1.166281,2.428402,7.901706,3.651680,2.894111
2.100000,-0.472615,-0.595285,1.395538,0.588646,1.278699,-0.178268,-1.278105,1.105985,-0.018144,3.330882,-1.127793,2.452643,7.007146,4.038236,1.947013
2.110000,-0.466792,-0.582443,1.393755,0.576033,1.289703,-0.178327,-1.244465,1.094921,0.006469,3.396096,-1.085090,2.467762,6.135090,4.362471,0.945601
2.120000,-0.461093,-0.569491,1.391972,0.563759,1.300599,-0.178139,-1.210212,1.084293,0.031177,3.453143,-1.040049,2.472062,5.276622,4.637405,-0.091031
2.130000,-0.455515,-0.556431,1.390193,0.551830,1.311391,-0.177704,-1.175431,1.074128,0.055876,3.501681,-0.992512,2.465841,4.433719,4.861307,-1.157775
2.140000,-0.450055,-0.543264,1.388419,0.540252,1.322083,-0.177022,-1.140206,1.064449,0.080458,3.541876,-0.942999,2.448823,3.608361,5.032446,-2.249522
2.150000,-0.444709,-0.529990,1.386653,0.529027,1.332681,-0.176095,-1.104620,1.055273,0.104815,3.573913,-0.892045,2.420784,2.802525,5.149090,-3.361167
2.160000,-0.439474,-0.516610,1.384898,0.518160,1.343190,-0.174927,-1.068761,1.046617,0.128840,3.597401,-0.839649,2.381904,2.033273,5.195484,-4.496529
2.170000,-0.434345,-0.503126,1.383156,0.507653,1.353615,-0.173520,-1.032697,1.038481,0.152415,3.613977,-0.787697,2.331223,1.285651,5.185639,-5.640479
2.180000,-0.429319,-0.489538,1.381428,0.497507,1.363961,-0.171880,-0.996506,1.030862,0.175426,3.623186,-0.736124,2.269086,0.559791,5.119542,-6.786817
2.190000,-0.424393,-0.475847,1.379719,0.487723,1.374234,-0.170014,-0.960258,1.023755,0.197759,3.625246,-0.685494,2.195500,-0.144176,4.997177,-7.929340
2.200000,-0.419564,-0.462054,1.378029,0.478302,1.384438,-0.167928,-0.924024,1.017147,0.219298,3.620376,-0.636368,2.110533,-0.826119,4.818533,-9.061850
2.210000,-0.414826,-0.448159,1.376361,0.469242,1.394579,-0.165631,-0.887877,1.011026,0.239933,3.608361,-0.588852,2.014403,-1.474891,4.572024,-10.180317
2.220000,-0.410178,-0.434163,1.374717,0.460544,1.404660,-0.163133,-0.851878,1.005361,0.259550,3.590456,-0.544594,1.907099,-2.102726,4.270625,-11.276102
2.230000,-0.405614,-0.420066,1.373099,0.452204,1.414687,-0.160444,-0.816089,1.000123,0.278039,3.566373,-0.503618,1.788978,-2.710842,3.915738,-12.342737
2.240000,-0.401132,-0.405869,1.371509,0.444221,1.424664,-0.157576,-0.780570,0.995276,0.295294,3.536301,-0.466453,1.660363,-3.300458,3.508766,-13.373756
2.250000,-0.396729,-0.391573,1.369948,0.436592,1.434594,-0.154542,-0.745382,0.990779,0.311212,3.500421,-0.433612,1.521643,-3.872790,3.051112,-14.362691
2.260000,-0.392399,-0.377177,1.368418,0.429312,1.444480,-0.151356,-0.710582,0.986591,0.325693,3.458746,-0.405236,1.373102,-4.425191,2.535125,-15.298807
2.270000,-0.388141,-0.362683,1.366921,0.422379,1.454326,-0.148033,-0.676225,0.982657,0.338644,3.411793,-0.382661,1.215658,-4.963219,1.972371,-16.180429
2.280000,-0.383951,-0.348091,1.365458,0.415786,1.464134,-0.144589,-0.642364,0.978919,0.349978,3.359524,-0.365937,1.049695,-5.488564,1.365362,-17.001611
2.290000,-0.379824,-0.333401,1.364030,0.409529,1.473905,-0.141040,-0.609052,0.975317,0.359612,3.302058,-0.355493,0.875847,-6.002918,0.716609,-17.756410
2.300000,-0.375759,-0.318613,1.362638,0.403603,1.483641,-0.137403,-0.576340,0.971787,0.367471,3.239496,-0.351735,0.694808,-6.507972,0.028624,-18.438881
2.310000,-0.371751,-0.303728,1.361282,0.398000,1.493341,-0.133696,-0.544277,0.968262,0.373482,3.172098,-0.354738,0.506924,-7.009817,-0.703782,-19.032802
2.320000,-0.367798,-0.288746,1.359964,0.392715,1.503006,-0.129939,-0.512915,0.964667,0.377591,3.099518,-0.365578,0.313970,-7.505206,-1.469454,-19.543766
2.330000,-0.363896,-0.273668,1.358683,0.387740,1.512634,-0.126151,-0.482303,0.960924,0.379746,3.022012,-0.384226,0.116340,-7.995292,-2.264936,-19.967086
2.340000,-0.360042,-0.258494,1.357441,0.383066,1.522223,-0.122351,-0.452491,0.956955,0.379905,2.939626,-0.410964,-0.085064,-8.481227,-3.086774,-20.298077
2.350000,-0.356234,-0.243224,1.356236,0.378687,1.531772,-0.118559,-0.423527,0.952677,0.378035,2.852397,-0.446038,-0.289298,-8.964165,-3.931513,-20.532053
2.360000,-0.352467,-0.227858,1.355070,0.374593,1.541276,-0.114797,-0.395454,0.948009,0.374106,2.760789,-0.489362,-0.496020,-9.456374,-4.803212,-20.647811
2.370000,-0.348741,-0.212398,1.353940,0.370775,1.550730,-0.111084,-0.368327,0.942861,0.368113,2.663773,-0.541817,-0.702643,-9.946530,-5.689981,-20.659205
2.380000,-0.345051,-0.196844,1.352848,0.367223,1.560131,-0.107441,-0.342195,0.937143,0.360054,2.561866,-0.603197,-0.908848,-10.434423,-6.587448,-20.563571
2.390000,-0.341395,-0.181196,1.351791,0.363927,1.569471,-0.103890,-0.317106,0.930767,0.349941,2.455093,-0.673587,-1.113549,-10.919845,-7.491238,-20.358247
2.400000,-0.337772,-0.165455,1.350769,0.360877,1.578744,-0.100449,-0.293109,0.923641,0.337792,2.343478,-0.753029,-1.315638,-11.402586,-8.396974,-20.040568
2.410000,-0.334177,-0.149621,1.349782,0.358061,1.587941,-0.097140,-0.270246,0.915679,0.323630,2.227624,-0.841244,-1.514898,-11.896929,-9.307212,-19.584621
2.420000,-0.330610,-0.133696,1.348826,0.355468,1.597054,-0.093983,-0.248573,0.906786,0.307511,2.106203,-0.938838,-1.707986,-12.386400,-10.209800,-19.013840
2.430000,-0.327067,-0.117680,1.347901,0.353085,1.606073,-0.090996,-0.228139,0.896872,0.289492,1.979919,-1.045398,-1.894792,-12.869016,-11.099514,-18.328409
2.440000,-0.323547,-0.101575,1.347006,0.350901,1.614988,-0.088199,-0.208991,0.885849,0.269640,1.848852,-1.160768,-2.074172,-13.342794,-11.971133,-17.528510
2.450000,-0.320048,-0.085381,1.346137,0.348901,1.623786,-0.085610,-0.191177,0.873628,0.248037,1.713099,-1.284742,-2.244982,-13.805749,-12.819432,-16.614327
2.460000,-0.316569,-0.069100,1.345293,0.347073,1.632456,-0.083244,-0.174738,0.860128,0.224760,1.573287,-1.416914,-2.407247,-14.268729,-13.642913,-15.556529
2.470000,-0.313106,-0.052732,1.344471,0.345401,1.640984,-0.081119,-0.159727,0.845263,0.199929,1.428352,-1.557320,-2.557062,-14.715351,-14.432172,-14.388427
2.480000,-0.309660,-0.036281,1.343669,0.343873,1.649357,-0.079250,-0.146186,0.828956,0.173660,1.279047,-1.705425,-2.694661,-15.142059,-15.181532,-13.113821
2.490000,-0.306229,-0.019746,1.342885,0.342473,1.657558,-0.077650,-0.134159,0.811130,0.146080,1.125589,-1.860799,-2.818996,-15.545299,-15.885312,-11.736507
2.500000,-0.302810,-0.003130,1.342115,0.341185,1.665574,-0.076332,-0.123687,0.791717,0.117327,0.968231,-2.022960,-2.929061,-15.921518,-16.537833,-10.260283
2.510000,-0.299405,0.013565,1.341357,0.339994,1.673387,-0.075307,-0.114804,0.770649,0.087535,0.807486,-2.191513,-3.025186,-16.272848,-17.129714,-8.656090
2.520000,-0.296010,0.030337,1.340608,0.338883,1.680981,-0.074584,-0.107549,0.747868,0.056879,0.643144,-2.365512,-3.103359,-16.589352,-17.659432,-6.964606
2.530000,-0.292627,0.047184,1.339865,0.337837,1.688339,-0.074172,-0.101951,0.723322,0.025526,0.475829,-2.544477,-3.164213,-16.866780,-18.121762,-5.193651
2.540000,-0.289253,0.064103,1.339124,0.336839,1.695442,-0.074075,-0.098041,0.696964,-0.006345,0.305953,-2.727705,-3.206993,-17.100880,-18.511478,-3.351048
2.550000,-0.285890,0.081092,1.338382,0.335871,1.702272,-0.074300,-0.095839,0.668756,-0.038551,0.133970,-2.914447,-3.231021,-17.287403,-18.823355,-1.444617
2.560000,-0.282536,0.098147,1.337637,0.334916,1.708811,-0.074846,-0.095369,0.638660,-0.070914,-0.039835,-3.104497,-3.236874,-17.416737,-19.036985,0.547499
2.570000,-0.279191,0.115267,1.336884,0.333957,1.715039,-0.075717,-0.096640,0.606661,-0.103222,-0.214420,-3.295576,-3.221248,-17.490649,-19.164184,2.584168
2.580000,-0.275857,0.132447,1.336121,0.332977,1.720937,-0.076910,-0.099659,0.572746,-0.135271,-0.389451,-3.487481,-3.185080,-17.505546,-19.201585,4.653932
2.590000,-0.272532,0.149685,1.335345,0.331958,1.726487,-0.078421,-0.104428,0.536911,-0.166854,-0.564322,-3.679297,-3.128097,-17.457833,-19.145821,6.745338
2.600000,-0.269218,0.166976,1.334552,0.330883,1.731669,-0.080245,-0.110943,0.499163,-0.197763,-0.738387,-3.870076,-3.050139,-17.343917,-18.993525,8.846929
2.610000,-0.265915,0.184317,1.333739,0.329734,1.736465,-0.082373,-0.119198,0.459504,-0.227794,-0.911661,-4.059943,-2.951826,-17.142687,-18.713349,10.964013
2.620000,-0.262623,0.201704,1.332903,0.328494,1.740853,-0.084797,-0.129168,0.417975,-0.256729,-1.081785,-4.245259,-2.831656,-16.870210,-18.333334,13.066319
2.630000,-0.259345,0.219132,1.332042,0.327145,1.744818,-0.087503,-0.140824,0.374614,-0.284357,-1.248823,-4.426277,-2.690594,-16.525038,-17.853540,15.140341
2.640000,-0.256081,0.236598,1.331152,0.325672,1.748340,-0.090479,-0.154132,0.329467,-0.310472,-1.412039,-4.601998,-2.528989,-16.105722,-17.274027,17.172571
2.650000,-0.252832,0.254098,1.330232,0.324057,1.751402,-0.093707,-0.169049,0.282595,-0.334870,-1.570685,-4.771425,-2.347327,-15.610812,-16.594854,19.149500
2.660000,-0.249600,0.271625,1.329278,0.322286,1.753987,-0.097170,-0.185539,0.234047,-0.357351,-1.725046,-4.935021,-2.145986,-15.012406,-15.779238,21.051512
2.670000,-0.246387,0.289176,1.328288,0.320342,1.756078,-0.100847,-0.203529,0.183923,-0.377728,-1.871864,-5.088338,-1.926296,-14.338749,-14.868593,22.871957
2.680000,-0.243194,0.306745,1.327260,0.318210,1.757660,-0.104717,-0.222952,0.132313,-0.395818,-2.011576,-5.232092,-1.688862,-13.591630,-13.867491,24.598075
2.690000,-0.240024,0.324327,1.326193,0.315878,1.758719,-0.108755,-0.243734,0.079316,-0.411449,-2.143457,-5.365401,-1.434691,-12.772839,-12.780502,26.217107
2.700000,-0.236877,0.341917,1.325084,0.313331,1.759242,-0.112937,-0.265793,0.025042,-0.424460,-2.266800,-5.487431,-1.164919,-11.884168,-11.612199,27.716294
2.710000,-0.233758,0.359510,1.323934,0.310559,1.759217,-0.117236,-0.289052,-0.030407,-0.434686,-2.382014,-5.598737,-0.879512,-10.899620,-10.333115,29.050164
2.720000,-0.230667,0.377100,1.322739,0.307547,1.758631,-0.121622,-0.313400,-0.086889,-0.442008,-2.485823,-5.695386,-0.582927,-9.852175,-8.986026,30.242675
2.730000,-0.227608,0.394681,1.321501,0.304287,1.757476,-0.126066,-0.338732,-0.144269,-0.446307,-2.578865,-5.778260,-0.275159,-8.747024,-7.579671,31.285073
2.740000,-0.224582,0.412247,1.320218,0.300770,1.755743,-0.130537,-0.364939,-0.202406,-0.447479,-2.660588,-5.846811,0.042245,-7.589361,-6.122790,32.168607
2.750000,-0.221593,0.429794,1.318890,0.296986,1.753426,-0.135005,-0.391905,-0.261156,-0.445435,-2.730494,-5.900576,0.367654,-6.384377,-4.624120,32.884520
2.760000,-0.218643,0.447314,1.317518,0.292930,1.750519,-0.139436,-0.419516,-0.320374,-0.440083,-2.788901,-5.939800,0.701400,-5.117934,-3.076819,33.372234
2.770000,-0.215735,0.464802,1.316102,0.288594,1.747018,-0.143796,-0.447640,-0.379900,-0.431394,-2.833601,-5.962734,1.036817,-3.816924,-1.507116,33.681167
2.780000,-0.212872,0.482252,1.314642,0.283976,1.742920,-0.148052,-0.476145,-0.439576,-0.419339,-2.865149,-5.969903,1.374419,-2.488906,0.074342,33.808912
2.790000,-0.210057,0.499659,1.313141,0.279070,1.738226,-0.152171,-0.504898,-0.499245,-0.403905,-2.883314,-5.961243,1.712383,-1.141441,1.656907,33.753062
2.800000,-0.207292,0.517015,1.311600,0.273877,1.732936,-0.156119,-0.533766,-0.558748,-0.385096,-2.887939,-5.936797,2.048860,0.217912,3.229932,33.511208
2.810000,-0.204580,0.534315,1.310019,0.268395,1.727052,-0.159863,-0.562613,-0.617924,-0.362914,-2.879078,-5.896290,2.384203,1.585037,4.772100,33.024763
2.820000,-0.201925,0.551554,1.308403,0.262626,1.720579,-0.163367,-0.591302,-0.676623,-0.337432,-2.856404,-5.840977,2.711251,2.948509,6.284740,32.354380
2.830000,-0.199329,0.568725,1.306753,0.256570,1.713522,-0.166601,-0.619696,-0.734694,-0.308715,-2.820147,-5.770724,3.030693,4.300344,7.758512,31.504528
2.840000,-0.196794,0.585822,1.305072,0.250233,1.705888,-0.169531,-0.647660,-0.791989,-0.276849,-2.770462,-5.685967,3.340758,5.632562,9.184074,30.479680
2.850000,-0.194325,0.602841,1.303363,0.243619,1.697685,-0.172127,-0.675061,-0.848367,-0.241937,-2.707587,-5.587235,3.639718,6.937180,10.552086,29.284308
2.860000,-0.191923,0.619774,1.301631,0.236734,1.688923,-0.174361,-0.701763,-0.903676,-0.204077,-2.631285,-5.473877,3.927707,8.192272,11.821088,27.876988
2.870000,-0.189591,0.636617,1.299878,0.229586,1.679615,-0.176200,-0.727646,-0.957803,-0.163432,-2.543259,-5.349620,4.198787,9.405507,13.017792,26.313706
2.880000,-0.187332,0.653365,1.298108,0.222184,1.669772,-0.177620,-0.752588,-1.010629,-0.120156,-2.443335,-5.213780,4.453495,10.570614,14.136789,24.604554
2.890000,-0.185148,0.670011,1.296327,0.214538,1.659407,-0.178595,-0.776474,-1.062043,-0.074421,-2.332028,-5.067161,4.690425,11.681316,15.172673,22.759621
2.900000,-0.183042,0.686551,1.294538,0.206659,1.648536,-0.179101,-0.799193,-1.111940,-0.026411,-2.209911,-4.910622,4.908269,12.731340,16.120035,20.789001
2.910000,-0.181016,0.702980,1.292746,0.198558,1.637173,-0.179117,-0.820627,-1.160207,0.023687,-2.076559,-4.743426,5.106816,13.687515,16.931843,18.677628
2.920000,-0.179072,0.719293,1.290957,0.190250,1.625337,-0.178622,-0.840693,-1.206783,0.075653,-1.935193,-4.570441,5.282603,14.573757,17.649411,16.463829
2.930000,-0.177211,0.735485,1.289176,0.181749,1.613043,-0.177598,-0.859303,-1.251594,0.129264,-1.785327,-4.390753,5.435795,15.387085,18.272429,14.160776
2.940000,-0.175437,0.751553,1.287407,0.173069,1.600311,-0.176032,-0.876374,-1.294578,0.184291,-1.627705,-4.205308,5.565565,16.124520,18.800585,11.781640
2.950000,-0.173751,0.767490,1.285657,0.164227,1.587158,-0.173909,-0.891833,-1.335684,0.240495,-1.463100,-4.015058,5.671218,16.783080,19.233568,9.339592
2.960000,-0.172153,0.783294,1.283931,0.155238,1.573603,-0.171219,-0.905602,-1.374850,0.297634,-1.291120,-3.819442,5.752309,17.329581,19.532853,6.844807
2.970000,-0.170646,0.798961,1.282234,0.146120,1.559667,-0.167954,-0.917639,-1.412064,0.355457,-1.115430,-3.622999,5.808127,17.794944,19.741023,4.313821
2.980000,-0.169231,0.814486,1.280574,0.136891,1.545369,-0.164108,-0.927897,-1.447305,0.413712,-0.935489,-3.424911,5.838510,18.179888,19.862449,1.760171
2.990000,-0.167909,0.829867,1.278954,0.127568,1.530728,-0.159679,-0.936337,-1.480560,0.472142,-0.752098,-3.226024,5.843300,18.485131,19.901497,-0.802605
3.000000,-0.166680,0.845100,1.277382,0.118170,1.515764,-0.154666,-0.942930,-1.511825,0.530492,-0.566050,-3.027141,5.822473,18.711389,19.862539,-3.360969
3.010000,-0.165546,0.860181,1.275863,0.108716,1.500497,-0.149070,-0.947642,-1.541095,0.588498,-0.377168,-2.828037,5.775326,18.835053,19.725137,-5.880800
3.020000,-0.164506,0.875109,1.274402,0.099224,1.484948,-0.142897,-0.950470,-1.568392,0.645915,-0.188511,-2.631752,5.704035,18.884147,19.521503,-8.371662
3.030000,-0.163561,0.889880,1.273007,0.089713,1.469136,-0.136154,-0.951411,-1.593737,0.702496,0.000279,-2.437803,5.608026,18.862369,19.259043,-10.822538
3.040000,-0.162712,0.904491,1.271681,0.080202,1.453080,-0.128851,-0.950467,-1.617158,0.757995,0.188512,-2.246742,5.487754,18.773414,18.945162,-13.222409
3.050000,-0.161957,0.918940,1.270432,0.070710,1.436799,-0.120999,-0.947645,-1.638683,0.812172,0.375535,-2.059046,5.343784,18.620981,18.587267,-15.560257
3.060000,-0.161297,0.933226,1.269263,0.061255,1.420312,-0.112612,-0.942956,-1.658348,0.864783,0.561332,-1.874867,5.175799,18.393624,18.186396,-17.799975
3.070000,-0.160732,0.947346,1.268181,0.051856,1.403638,-0.103709,-0.936427,-1.676195,0.915615,0.743903,-1.695129,4.986935,18.112035,17.757104,-19.958707
3.080000,-0.160260,0.961298,1.267191,0.042532,1.386794,-0.094307,-0.928088,-1.692266,0.964451,0.923410,-1.519792,4.776921,17.781765,17.307574,-22.028506
3.090000,-0.159881,0.975081,1.266296,0.033301,1.369799,-0.084427,-0.917971,-1.706606,1.011086,1.099394,-1.349018,4.546688,17.408365,16.845995,-24.001426
3.100000,-0.159594,0.988694,1.265503,0.024179,1.352668,-0.074093,-0.906113,-1.719261,1.055321,1.271452,-1.182885,4.297242,16.997385,16.380550,-25.869522
3.110000,-0.159397,1.002134,1.264816,0.015184,1.335419,-0.063329,-0.892556,-1.730287,1.096959,1.439170,-1.022123,4.028666,16.556041,15.937870,-27.599401
3.120000,-0.159289,1.015402,1.264238,0.006333,1.318068,-0.052163,-0.877345,-1.739718,1.135838,1.602410,-0.864917,3.744510,16.088015,15.505438,-29.211680
3.130000,-0.159270,1.028495,1.263774,-0.002358,1.300630,-0.040622,-0.860524,-1.747599,1.171798,1.760859,-0.711960,3.444840,15.598653,15.089182,-30.701528
3.140000,-0.159336,1.041414,1.263427,-0.010872,1.283121,-0.028737,-0.842144,-1.753971,1.204688,1.914330,-0.563060,3.130904,15.093303,14.695029,-32.064115
3.150000,-0.159486,1.054158,1.263200,-0.019195,1.265555,-0.016539,-0.822255,-1.758873,1.234372,2.062689,-0.417966,2.803998,14.577311,14.328908,-33.294610
3.160000,-0.159719,1.066725,1.263097,-0.027312,1.247949,-0.004060,-0.800908,-1.762358,1.260721,2.205868,-0.277814,2.464713,14.055786,14.033253,-34.369125
3.170000,-0.160032,1.079117,1.263120,-0.035209,1.230313,0.008664,-0.778155,-1.764439,1.283633,2.343816,-0.138813,2.116229,13.534342,13.773013,-35.304222
3.180000,-0.160423,1.091331,1.263271,-0.042871,1.212664,0.021600,-0.754049,-1.765142,1.303017,2.476573,-0.002231,1.759102,13.018355,13.549646,-36.097406
3.190000,-0.160889,1.103370,1.263553,-0.050286,1.195015,0.034713,-0.728640,-1.764490,1.318791,2.604219,0.132308,1.394763,12.513202,13.364607,-36.746179
3.200000,-0.161427,1.115232,1.263966,-0.057440,1.177379,0.047964,-0.701981,-1.762501,1.330893,2.726891,0.265194,1.024668,12.024259,13.219355,-37.248047
3.210000,-0.162036,1.126918,1.264512,-0.064321,1.159770,0.061318,-0.674127,-1.759204,1.339261,2.843997,0.395626,0.649438,11.576581,13.145829,-37.578735
3.220000,-0.162713,1.138427,1.265192,-0.070918,1.142200,0.074737,-0.645115,-1.754591,1.343873,2.957626,0.526880,0.272619,11.153455,13.111270,-37.760191
3.230000,-0.163454,1.149762,1.266007,-0.077220,1.124682,0.088183,-0.614988,-1.748667,1.344710,3.067158,0.657974,-0.105269,10.757848,13.113403,-37.792585
3.240000,-0.164256,1.160921,1.266956,-0.083214,1.107231,0.101619,-0.583785,-1.741431,1.341769,3.172884,0.789263,-0.482737,10.392726,13.149953,-37.676089
3.250000,-0.165117,1.171907,1.268039,-0.088892,1.089858,0.115006,-0.551542,-1.732880,1.335061,3.275124,0.921080,-0.858295,10.061055,13.218643,-37.410871
3.260000,-0.166033,1.182719,1.269256,-0.094241,1.072578,0.128308,-0.518311,-1.723013,1.324600,3.372574,1.053100,-1.231740,9.807540,13.333235,-36.964736
3.270000,-0.167001,1.193358,1.270605,-0.099254,1.055403,0.141486,-0.484098,-1.711813,1.310444,3.469526,1.187114,-1.598554,9.588299,13.473454,-36.374184
3.280000,-0.168017,1.203827,1.272085,-0.103920,1.038346,0.154505,-0.448927,-1.699266,1.292651,3.564447,1.322640,-1.958757,9.401186,13.635058,-35.643349
3.290000,-0.169078,1.214126,1.273694,-0.108230,1.021422,0.167327,-0.412815,-1.685355,1.271295,3.657649,1.459872,-2.310967,9.244057,13.813809,-34.776365
3.300000,-0.170180,1.224256,1.275431,-0.112173,1.004644,0.179919,-0.375779,-1.670062,1.246463,3.749421,1.598960,-2.653844,9.114768,14.005468,-33.777365
3.310000,-0.171320,1.234219,1.277292,-0.115742,0.988025,0.192245,-0.337838,-1.653372,1.218245,3.839336,1.739778,-2.986934,9.028715,14.211670,-32.629119
3.320000,-0.172494,1.244017,1.279275,-0.118927,0.971581,0.204273,-0.298995,-1.635260,1.186765,3.929284,1.882943,-3.306976,8.964066,14.421582,-31.359741
3.330000,-0.173697,1.253651,1.281376,-0.121719,0.955325,0.215970,-0.259254,-1.615706,1.152150,4.018674,2.028205,-3.613747,8.916526,14.630243,-29.975979
3.340000,-0.174927,1.263124,1.283593,-0.124109,0.939272,0.227306,-0.218622,-1.594689,1.114538,4.107657,2.175527,-3.906137,8.881805,14.832696,-28.484585
3.350000,-0.176178,1.272438,1.285921,-0.126088,0.923436,0.238252,-0.177102,-1.572189,1.074078,4.196339,2.324822,-4.183103,8.855608,15.023982,-26.892306
3.360000,-0.177447,1.281594,1.288357,-0.127648,0.907833,0.248779,-0.134705,-1.548186,1.030922,4.283961,2.475966,-4.444412,8.854422,15.198818,-25.187144
3.370000,-0.178730,1.290595,1.290895,-0.128779,0.892477,0.258862,-0.091423,-1.522664,0.985248,4.372491,2.628743,-4.687399,8.850633,15.352609,-23.396893
3.380000,-0.180021,1.299444,1.293532,-0.129473,0.877385,0.268476,-0.047256,-1.495606,0.937235,4.460942,2.782932,-4.912096,8.837403,15.480435,-21.530598
3.390000,-0.181318,1.308144,1.296263,-0.129721,0.862570,0.277599,-0.002205,-1.467001,0.887070,4.549185,2.938248,-5.117788,8.807896,15.577377,-19.597306
3.400000,-0.182614,1.316697,1.299083,-0.129514,0.848050,0.286211,0.043727,-1.436839,0.834945,4.637023,3.094360,-5.303849,8.755276,15.638516,-17.606062
3.410000,-0.183906,1.325106,1.301986,-0.128844,0.833839,0.294292,0.090545,-1.405111,0.781058,4.725261,3.251052,-5.469900,8.645661,15.654668,-15.562012
3.420000,-0.185190,1.333374,1.304967,-0.127701,0.819953,0.301827,0.138228,-1.371818,0.725616,4.811032,3.407493,-5.615132,8.502570,15.625702,-13.478577
3.430000,-0.186459,1.341506,1.308020,-0.126077,0.806408,0.308800,0.186760,-1.336963,0.668826,4.895189,3.563401,-5.739372,8.322479,15.547218,-11.365282
3.440000,-0.187709,1.349504,1.311141,-0.123963,0.793219,0.315200,0.236125,-1.300553,0.610899,4.977346,3.718258,-5.842370,8.101862,15.414822,-9.231650
3.450000,-0.188936,1.357372,1.314322,-0.121352,0.780402,0.321015,0.286299,-1.262603,0.552050,5.057080,3.871503,-5.923969,7.837195,15.224115,-7.087202
3.460000,-0.190135,1.365113,1.317559,-0.118235,0.767972,0.326238,0.337266,-1.223123,0.492491,5.134819,4.023241,-5.984145,7.502525,14.952759,-4.940557
3.470000,-0.191299,1.372732,1.320845,-0.114604,0.755944,0.330863,0.388983,-1.182148,0.432438,5.207970,4.171143,-6.022849,7.119501,14.616495,-2.802254
3.480000,-0.192425,1.380233,1.324174,-0.110453,0.744333,0.334886,0.441412,-1.139713,0.372105,5.277046,4.315348,-6.040250,6.687343,14.213124,-0.681927
3.490000,-0.193507,1.387620,1.327541,-0.105774,0.733154,0.338305,0.494509,-1.095856,0.311703,5.341551,4.455174,-6.036579,6.205273,13.740446,1.410790
3.500000,-0.194539,1.394898,1.330938,-0.100560,0.722421,0.341121,0.548226,-1.050626,0.251443,5.400982,4.589918,-6.012159,5.672511,13.196260,3.466262
3.510000,-0.195516,1.402070,1.334361,-0.094807,0.712146,0.343335,0.602515,-1.004064,0.191531,5.455319,4.720012,-5.967093,5.075903,12.549106,5.466835
3.520000,-0.196433,1.409142,1.337803,-0.088509,0.702343,0.344953,0.657312,-0.956249,0.132166,5.502884,4.841966,-5.902649,4.428562,11.829627,7.411879
3.530000,-0.197284,1.416119,1.341258,-0.081660,0.693025,0.345981,0.712551,-0.907250,0.073542,5.543724,4.956368,-5.819069,3.731224,11.039207,9.292741
3.540000,-0.198065,1.423005,1.344721,-0.074256,0.684202,0.346427,0.768162,-0.857149,0.015847,5.577344,5.062518,-5.717037,2.984627,10.179229,11.100770
3.550000,-0.198768,1.429805,1.348185,-0.066295,0.675885,0.346302,0.824072,-0.806030,-0.040740,5.603255,5.159726,-5.597325,2.189507,9.251076,12.827315
3.560000,-0.199389,1.436524,1.351645,-0.057774,0.668084,0.345616,0.880212,-0.753975,-0.096033,5.622037,5.248383,-5.459763,1.319772,8.229209,14.437750
3.570000,-0.199921,1.443168,1.355095,-0.048691,0.660808,0.344385,0.936483,-0.701097,-0.149883,5.630702,5.325305,-5.307729,0.406273,7.145229,15.952578
3.580000,-0.200360,1.449742,1.358531,-0.039045,0.654065,0.342624,0.992795,-0.647506,-0.202138,5.630030,5.391096,-5.141048,-0.546968,6.003816,17.366327
3.590000,-0.200700,1.456251,1.361946,-0.028835,0.647860,0.340348,1.049051,-0.593314,-0.252658,5.619644,5.445205,-4.960758,-1.535930,4.809650,18.673526
3.600000,-0.200935,1.462701,1.365336,-0.018064,0.642200,0.337577,1.105154,-0.538642,-0.301312,5.599206,5.487128,-4.767951,-2.556590,3.567410,19.868705
3.610000,-0.201060,1.469097,1.368696,-0.006733,0.637088,0.334328,1.161006,-0.483606,-0.347966,5.568918,5.517086,-4.562511,-3.617516,2.264671,20.914459
3.620000,-0.201068,1.475445,1.372021,0.005155,0.632528,0.330624,1.216496,-0.428345,-0.392529,5.527344,5.533063,-4.348633,-4.700556,0.925311,21.841160
3.630000,-0.200955,1.481749,1.375307,0.017595,0.628522,0.326485,1.271517,-0.372990,-0.434909,5.474852,5.535493,-4.126090,-5.800145,-0.443895,22.647247
3.640000,-0.200714,1.488017,1.378550,0.030583,0.625068,0.321934,1.325957,-0.317681,-0.475026,5.411304,5.524109,-3.896096,-6.910720,-1.836172,23.331159
3.650000,-0.200341,1.494253,1.381744,0.044112,0.622168,0.316992,1.379706,-0.262555,-0.512811,5.336619,5.498715,-3.659879,-8.026717,-3.244749,23.891334
3.660000,-0.199830,1.500462,1.384888,0.058175,0.619816,0.311685,1.432648,-0.207751,-0.548193,5.250458,5.459448,-3.417343,-9.134695,-4.669572,24.292286
3.670000,-0.199176,1.506651,1.387977,0.072762,0.618011,0.306036,1.484678,-0.153413,-0.581146,5.153589,5.405617,-3.172928,-10.237933,-6.096323,24.570535
3.680000,-0.198373,1.512824,1.391008,0.087865,0.616746,0.300070,1.535684,-0.099686,-0.611644,5.045731,5.337541,-2.926333,-11.331832,-7.517403,24.728672
3.690000,-0.197417,1.518987,1.393977,0.103472,0.616015,0.293812,1.585556,-0.046710,-0.639670,4.926999,5.255313,-2.678746,-12.411795,-8.925215,24.769291
3.700000,-0.196302,1.525146,1.396883,0.119572,0.615809,0.287285,1.634188,0.005374,-0.665219,4.797557,5.159106,-2.431330,-13.473222,-10.312163,24.694985
3.710000,-0.195024,1.531305,1.399722,0.136151,0.616119,0.280515,1.681472,0.056422,-0.688288,4.657576,5.048784,-2.184090,-14.510602,-11.661016,24.479780
3.720000,-0.193578,1.537470,1.402493,0.153196,0.616933,0.273527,1.727305,0.106305,-0.708910,4.507396,4.925572,-1.940814,-15.520360,-12.974989,24.158335
3.730000,-0.191959,1.543646,1.405192,0.170692,0.618241,0.266345,1.771587,0.154891,-0.727117,4.347276,4.789421,-1.701257,-16.498011,-14.247664,23.736740
3.740000,-0.190162,1.549837,1.407819,0.188622,0.620027,0.258993,1.814219,0.202052,-0.742951,4.177558,4.640778,-1.466392,-17.439066,-15.472623,23.221086
3.750000,-0.188185,1.556048,1.410372,0.206971,0.622276,0.251494,1.855107,0.247666,-0.756463,3.998631,4.480149,-1.237129,-18.339040,-16.643448,22.617465
3.760000,-0.186022,1.562284,1.412849,0.225719,0.624975,0.243871,1.894159,0.291608,-0.767708,3.810668,4.307278,-1.013696,-19.186850,-17.732699,21.916316
3.770000,-0.183669,1.568549,1.415249,0.244848,0.628103,0.236147,1.931293,0.333777,-0.776762,3.614764,4.124772,-0.798350,-19.985413,-18.757555,21.141298
3.780000,-0.181124,1.574847,1.417571,0.264338,0.631644,0.228342,1.966429,0.374070,-0.783702,3.411136,3.932355,-0.591090,-20.731048,-19.714170,20.300418
3.790000,-0.178381,1.581183,1.419815,0.284169,0.635578,0.220479,1.999492,0.412393,-0.788613,3.200332,3.730728,-0.392534,-21.420077,-20.598702,19.401684
3.800000,-0.175439,1.587560,1.421981,0.304321,0.639885,0.212577,2.030413,0.448656,-0.791584,2.982935,3.520634,-0.203222,-22.048820,-21.407306,18.453103
3.810000,-0.172294,1.593982,1.424067,0.324770,0.644544,0.204654,2.059117,0.482770,-0.792711,2.758351,3.301937,-0.023722,-22.582847,-22.113127,17.465463
3.820000,-0.168943,1.600452,1.426074,0.345496,0.649533,0.196728,2.085564,0.514673,-0.792092,2.530118,3.077613,0.145849,-23.052996,-22.738150,16.443651
3.830000,-0.165383,1.606973,1.428001,0.366474,0.654830,0.188817,2.109705,0.544303,-0.789828,2.297504,2.847447,0.305063,-23.459353,-23.281348,15.395334
3.840000,-0.161613,1.613549,1.429850,0.387682,0.660411,0.180937,2.131501,0.571605,-0.786026,2.061144,2.612262,0.453693,-23.802003,-23.741696,14.328177
3.850000,-0.157629,1.620183,1.431620,0.409096,0.666254,0.173102,2.150918,0.596534,-0.780790,1.821676,2.372893,0.591589,-24.081033,-24.118168,13.249848
3.860000,-0.153430,1.626875,1.433312,0.430692,0.672334,0.165326,2.167925,0.619043,-0.774236,1.579542,2.129319,0.718154,-24.291649,-24.387946,12.181255
3.870000,-0.149014,1.633630,1.434927,0.452447,0.678627,0.157621,2.182503,0.639113,-0.766463,1.335834,1.884438,0.834632,-24.439415,-24.574464,11.115202
3.880000,-0.144381,1.640448,1.436465,0.474334,0.685108,0.150000,2.194637,0.656727,-0.757578,1.090961,1.638102,0.940487,-24.525015,-24.679362,10.057735
3.890000,-0.139527,1.647333,1.437927,0.496331,0.691753,0.142473,2.204320,0.671873,-0.747688,0.845539,1.391118,1.035835,-24.549132,-24.704284,9.014900
3.900000,-0.134454,1.654284,1.439315,0.518413,0.698538,0.135049,2.211548,0.684549,-0.736896,0.600181,1.144277,1.120853,-24.512451,-24.650871,7.992742
3.910000,-0.129159,1.661304,1.440629,0.540554,0.705436,0.127738,2.216321,0.694756,-0.725314,0.355015,0.897851,1.194940,-24.403644,-24.508000,7.018508
3.920000,-0.123643,1.668393,1.441870,0.562731,0.712425,0.120546,2.218653,0.702512,-0.713029,0.111765,0.653793,1.260378,-24.236876,-24.291642,6.074446
3.930000,-0.117904,1.675552,1.443040,0.584919,0.719479,0.113479,2.218562,0.707840,-0.700137,-0.129537,0.412252,1.316541,-24.014303,-24.005001,5.164006
3.940000,-0.111944,1.682783,1.444140,0.607094,0.726574,0.106545,2.216071,0.710768,-0.686728,-0.368342,0.173916,1.363781,-23.738078,-23.651282,4.290638
3.950000,-0.105763,1.690084,1.445171,0.629233,0.733686,0.099746,2.211206,0.711331,-0.672890,-0.604127,-0.060561,1.402488,-23.410357,-23.233691,3.457791
3.960000,-0.099360,1.697456,1.446135,0.651311,0.740793,0.093088,2.203998,0.709570,-0.658715,-0.836573,-0.290770,1.432262,-23.028556,-22.750004,2.689673
3.970000,-0.092737,1.704900,1.447034,0.673305,0.747870,0.086573,2.194488,0.705533,-0.644270,-1.064754,-0.515614,1.455505,-22.600148,-22.209520,1.966434
3.980000,-0.085894,1.712414,1.447867,0.695193,0.754896,0.080204,2.182718,0.699276,-0.629628,-1.288429,-0.734784,1.471743,-22.127867,-21.616106,1.288981
3.990000,-0.078833,1.719997,1.448638,0.716952,0.761848,0.073981,2.168736,0.690858,-0.614857,-1.507174,-0.947772,1.481440,-21.614447,-20.973632,0.658222
4.000000,-0.071555,1.727650,1.449348,0.738560,0.768706,0.067907,2.152592,0.680343,-0.600019,-1.720590,-1.154106,1.485066,-21.062622,-20.285968,0.075064
4.010000,-0.064063,1.735371,1.449997,0.759997,0.775448,0.061981,2.134342,0.667800,-0.585181,-1.928351,-1.353343,1.482480,-20.474035,-19.557265,-0.443845
4.020000,-0.056356,1.743159,1.450588,0.781240,0.782055,0.056203,2.114045,0.653301,-0.570386,-2.130010,-1.545114,1.475645,-19.852647,-18.791077,-0.915264
4.030000,-0.048438,1.751012,1.451121,0.802271,0.788508,0.050573,2.091763,0.636923,-0.555683,-2.325304,-1.729052,1.464329,-19.201326,-17.991237,-1.340213
4.040000,-0.040312,1.758928,1.451600,0.823069,0.794788,0.045089,2.067561,0.618747,-0.541113,-2.513947,-1.904839,1.448992,-18.522939,-17.161580,-1.719711
4.050000,-0.031978,1.766907,1.452024,0.843616,0.800877,0.039750,2.041507,0.598855,-0.526715,-2.695682,-2.072197,1.430083,-17.820354,-16.305942,-2.054777
4.060000,-0.023440,1.774945,1.452395,0.863893,0.806760,0.034554,2.013672,0.577334,-0.512525,-2.870214,-2.230736,1.407696,-17.098178,-15.431904,-2.337695
4.070000,-0.014701,1.783041,1.452715,0.883884,0.812419,0.029499,1.984128,0.554270,-0.498570,-3.037506,-2.380605,1.383077,-16.357327,-14.539096,-2.579290
4.080000,-0.005763,1.791193,1.452986,0.903571,0.817840,0.024582,1.952947,0.529752,-0.484871,-3.197307,-2.521467,1.356241,-15.600459,-13.630892,-2.781651
4.090000,0.003369,1.799397,1.453207,0.922938,0.823009,0.019800,1.920207,0.503871,-0.471451,-3.349471,-2.653183,1.327568,-14.830229,-12.710669,-2.946866
4.100000,0.012694,1.807652,1.453382,0.941970,0.827913,0.015152,1.885984,0.476719,-0.458325,-3.493876,-2.775651,1.297420,-14.049293,-11.781803,-3.077025
4.110000,0.022208,1.815955,1.453511,0.960653,0.832540,0.010633,1.850357,0.448391,-0.445507,-3.630294,-2.888592,1.266053,-13.263739,-10.852971,-3.172075
4.120000,0.031906,1.824302,1.453595,0.978972,0.836877,0.006241,1.813404,0.418978,-0.433006,-3.758978,-2.992466,1.233985,-12.472369,-9.921598,-3.236509
4.130000,0.041786,1.832691,1.453636,0.996916,0.840916,0.001972,1.775204,0.388573,-0.420829,-3.879729,-3.087024,1.201417,-11.677419,-8.990412,-3.272678
4.140000,0.051843,1.841119,1.453635,1.014473,0.844646,-0.002177,1.735836,0.357268,-0.408979,-3.992522,-3.172283,1.168618,-10.881123,-8.062140,-3.282934
4.150000,0.062074,1.849583,1.453593,1.031630,0.848059,-0.006209,1.695380,0.325158,-0.397457,-4.097355,-3.248286,1.135836,-10.085717,-7.139508,-3.269627
4.160000,0.072474,1.858079,1.453511,1.048377,0.851147,-0.010127,1.653917,0.292336,-0.386260,-4.194088,-3.314878,1.103397,-9.297452,-6.230883,-3.237648
4.170000,0.083040,1.866605,1.453391,1.064705,0.853903,-0.013935,1.611524,0.258890,-0.375387,-4.283141,-3.372687,1.071261,-8.514056,-5.332662,-3.186499
4.180000,0.093767,1.875156,1.453233,1.080604,0.856323,-0.017636,1.568280,0.224912,-0.364833,-4.364391,-3.421573,1.039724,-7.737271,-4.446882,-3.118221
4.190000,0.104651,1.883730,1.453038,1.096068,0.858400,-0.021233,1.524262,0.190488,-0.354590,-4.437914,-3.461672,1.008947,-6.968842,-3.575579,-3.034854
4.200000,0.115687,1.892323,1.452808,1.111087,0.860131,-0.024729,1.479547,0.155707,-0.344651,-4.503801,-3.493140,0.979070,-6.210511,-2.720791,-2.938439
4.210000,0.126871,1.900932,1.452544,1.125657,0.861513,-0.028127,1.434213,0.120656,-0.335003,-4.562003,-3.515937,0.950406,-5.468067,-1.889924,-2.835857
4.220000,0.138198,1.909552,1.452246,1.139770,0.862544,-0.031430,1.388332,0.085416,-0.325639,-4.613026,-3.530765,0.922601,-4.738713,-1.078987,-2.723716
4.230000,0.149665,1.918181,1.451916,1.153422,0.863221,-0.034641,1.341977,0.050067,-0.316548,-4.656825,-3.537588,0.895959,-4.023698,-0.289359,-2.603463
4.240000,0.161265,1.926815,1.451554,1.166608,0.863545,-0.037762,1.295219,0.014690,-0.307716,-4.693552,-3.536628,0.870554,-3.324268,0.477582,-2.476545
4.250000,0.172995,1.935451,1.451161,1.179325,0.863515,-0.040796,1.248129,-0.020640,-0.299132,-4.723367,-3.528117,0.846445,-2.641674,1.220456,-2.344411
4.260000,0.184850,1.944085,1.450738,1.191570,0.863132,-0.043745,1.200776,-0.055846,-0.290781,-4.746295,-3.512111,0.823877,-1.980972,1.933031,-2.213534
4.270000,0.196825,1.952713,1.450286,1.203340,0.862399,-0.046612,1.153225,-0.090859,-0.282650,-4.762879,-3.489327,0.802409,-1.339135,2.619377,-2.079720
4.280000,0.208915,1.961331,1.449806,1.214634,0.861316,-0.049399,1.105539,-0.125610,-0.274728,-4.773143,-3.459814,0.782290,-0.716944,3.278707,-1.943803
4.290000,0.221116,1.969938,1.449298,1.225450,0.859888,-0.052107,1.057782,-0.160034,-0.267000,-4.777286,-3.423845,0.763537,-0.115180,3.910237,-1.806613
4.300000,0.233423,1.978528,1.448764,1.235789,0.858117,-0.054740,1.010013,-0.194066,-0.259453,-4.775517,-3.381704,0.746159,0.465375,4.513182,-1.668984
4.310000,0.245830,1.987099,1.448204,1.245651,0.856008,-0.057297,0.962292,-0.227646,-0.252070,-4.767916,-3.333512,0.730307,1.020496,5.082518,-1.535549
4.320000,0.258334,1.995647,1.447618,1.255035,0.853565,-0.059782,0.914673,-0.260718,-0.244842,-4.755028,-3.279963,0.715615,1.553267,5.622219,-1.402873
4.330000,0.270930,2.004169,1.447009,1.263945,0.850795,-0.062194,0.867209,-0.293228,-0.237754,-4.736926,-3.221167,0.702245,2.063327,6.132019,-1.271324
4.340000,0.283612,2.012662,1.446375,1.272380,0.847703,-0.064537,0.819951,-0.325125,-0.230793,-4.713838,-3.157424,0.690184,2.550317,6.611653,-1.141267
4.350000,0.296376,2.021122,1.445718,1.280344,0.844295,-0.066811,0.772948,-0.356361,-0.223946,-4.685998,-3.089036,0.679414,3.013878,7.060855,-1.013070
4.360000,0.309217,2.029547,1.445039,1.287840,0.840578,-0.069016,0.726248,-0.386890,-0.217199,-4.653521,-3.016168,0.669994,3.450647,7.475794,-0.889105
4.370000,0.322131,2.037933,1.444338,1.294871,0.836560,-0.071155,0.679892,-0.416671,-0.210542,-4.616930,-2.939462,0.661713,3.863634,7.860206,-0.767488
4.380000,0.335113,2.046277,1.443616,1.301439,0.832247,-0.073227,0.633922,-0.445667,-0.203961,-4.576328,-2.859065,0.654636,4.252846,8.214263,-0.648340
4.390000,0.348158,2.054577,1.442874,1.307550,0.827649,-0.075234,0.588378,-0.473841,-0.197445,-4.531952,-2.775278,0.648738,4.618291,8.538136,-0.531782
4.400000,0.361262,2.062829,1.442111,1.313208,0.822773,-0.077176,0.543295,-0.501162,-0.190982,-4.484041,-2.688402,0.643992,4.959977,8.831995,-0.417934
4.410000,0.374421,2.071031,1.441330,1.318418,0.817629,-0.079054,0.498709,-0.527599,-0.184561,-4.432733,-2.598625,0.640384,5.275403,9.093174,-0.307278
4.420000,0.387629,2.079181,1.440531,1.323184,0.812224,-0.080868,0.454651,-0.553126,-0.178171,-4.378499,-2.506510,0.637853,5.567391,9.325030,-0.199531
4.430000,0.400883,2.087275,1.439713,1.327513,0.806569,-0.082618,0.411149,-0.577722,-0.171801,-4.321462,-2.412220,0.636384,5.836257,9.528080,-0.094771
4.440000,0.414178,2.095311,1.438878,1.331409,0.800673,-0.084304,0.368230,-0.601364,-0.165440,-4.261850,-2.316042,0.635947,6.082315,9.702843,0.006925
4.450000,0.427510,2.103288,1.438027,1.334879,0.794545,-0.085926,0.325919,-0.624037,-0.159079,-4.199891,-2.218256,0.636512,6.305879,9.849838,0.105481
4.460000,0.440874,2.111201,1.437160,1.337930,0.788195,-0.087485,0.284240,-0.645724,-0.152707,-4.135728,-2.119054,0.638019,6.505286,9.967505,0.201495
4.470000,0.454267,2.119051,1.436278,1.340566,0.781634,-0.088981,0.243211,-0.666415,-0.146315,-4.069769,-2.018901,0.640500,6.683072,10.058696,0.294131
4.480000,0.467684,2.126833,1.435381,1.342796,0.774871,-0.090412,0.202850,-0.686100,-0.139894,-4.002137,-1.917966,0.643890,6.839792,10.124182,0.383229
4.490000,0.481122,2.134548,1.434470,1.344626,0.767915,-0.091778,0.163173,-0.704772,-0.133434,-3.933041,-1.816501,0.648152,6.976003,10.164737,0.468628
4.500000,0.494575,2.142191,1.433545,1.346062,0.760778,-0.093080,0.124194,-0.722429,-0.126928,-3.862683,-1.714752,0.653250,7.092262,10.181134,0.550168
4.510000,0.508042,2.149763,1.432608,1.347112,0.753470,-0.094317,0.085924,-0.739067,-0.120367,-3.791204,-1.612904,0.659105,7.187708,10.172823,0.628630
4.520000,0.521516,2.157260,1.431659,1.347783,0.746001,-0.095487,0.048372,-0.754687,-0.113743,-3.718928,-1.511311,0.665766,7.264489,10.142060,0.702798
4.530000,0.534996,2.164682,1.430699,1.348082,0.738380,-0.096591,0.011547,-0.769294,-0.107049,-3.645975,-1.410134,0.673146,7.323334,10.089782,0.772397
4.540000,0.548477,2.172027,1.429728,1.348016,0.730618,-0.097628,-0.024545,-0.782892,-0.100278,-3.572519,-1.309584,0.681198,7.364975,10.016921,0.837152
4.550000,0.561955,2.179294,1.428747,1.347593,0.722725,-0.098597,-0.059902,-0.795489,-0.093423,-3.498730,-1.209861,0.689872,7.390142,9.924414,0.896786
4.560000,0.575427,2.186481,1.427756,1.346821,0.714712,-0.099496,-0.094519,-0.807092,-0.086479,-3.424736,-1.111134,0.699095,7.398733,9.812583,0.951552
4.570000,0.588890,2.193588,1.426757,1.345705,0.706587,-0.100326,-0.128397,-0.817715,-0.079440,-3.350768,-1.013641,0.708860,7.392412,9.683049,1.000584
4.580000,0.602340,2.200613,1.425750,1.344255,0.698360,-0.101085,-0.161535,-0.827370,-0.072300,-3.276934,-0.917529,0.719086,7.372011,9.536822,1.043541
4.590000,0.615774,2.207555,1.424735,1.342477,0.690042,-0.101771,-0.193936,-0.836071,-0.065057,-3.203372,-0.822957,0.729710,7.338362,9.374910,1.080085
4.600000,0.629189,2.214413,1.423715,1.340379,0.681642,-0.102385,-0.225604,-0.843835,-0.057705,-3.130209,-0.730079,0.740665,7.292297,9.198324,1.109875
4.610000,0.642581,2.221187,1.422688,1.337967,0.673169,-0.102925,-0.256542,-0.850679,-0.050242,-3.057556,-0.639037,0.751895,7.234427,9.008099,1.132270
4.620000,0.655947,2.227876,1.421656,1.335250,0.664632,-0.103390,-0.286757,-0.856622,-0.042667,-2.985546,-0.549961,0.763299,7.165832,8.805215,1.147270
4.630000,0.669285,2.234480,1.420620,1.332235,0.656039,-0.103778,-0.316255,-0.861685,-0.034976,-2.914272,-0.462972,0.774815,7.087372,8.590677,1.154572
4.640000,0.682591,2.240997,1.419581,1.328928,0.647401,-0.104089,-0.345045,-0.865889,-0.027170,-2.843828,-0.378183,0.786364,6.999905,8.365492,1.153874
4.650000,0.695863,2.247428,1.418539,1.325336,0.638724,-0.104321,-0.373135,-0.869256,-0.019249,-2.774301,-0.295694,0.797865,6.904290,8.130667,1.144874
4.660000,0.709097,2.253771,1.417495,1.321467,0.630018,-0.104474,-0.400535,-0.871811,-0.011213,-2.705782,-0.215621,0.809281,6.801755,7.887781,1.126055
4.670000,0.722291,2.260028,1.416450,1.317328,0.621291,-0.104545,-0.427254,-0.873577,-0.003064,-2.638304,-0.137990,0.820411,6.692745,7.637197,1.098478
4.680000,0.735442,2.266197,1.415404,1.312924,0.612549,-0.104534,-0.453304,-0.874579,0.005194,-2.571945,-0.062899,0.831221,6.578075,7.379849,1.061987
4.690000,0.748549,2.272279,1.414359,1.308264,0.603802,-0.104441,-0.478697,-0.874843,0.013559,-2.506759,0.009588,0.841621,6.458558,7.116672,1.016429
4.700000,0.761607,2.278273,1.413316,1.303353,0.595055,-0.104263,-0.503444,-0.874396,0.022025,-2.442788,0.079418,0.851519,6.335008,6.848604,0.961650
4.710000,0.774615,2.284180,1.412274,1.298197,0.586316,-0.104000,-0.527557,-0.873265,0.030588,-2.380105,0.146507,0.860898,6.209155,6.577588,0.895575
4.720000,0.787570,2.290000,1.411236,1.292804,0.577592,-0.103651,-0.551050,-0.871475,0.039241,-2.318654,0.210914,0.869485,6.080785,6.303427,0.820205
4.730000,0.800470,2.295732,1.410202,1.287178,0.568889,-0.103215,-0.573935,-0.869055,0.047975,-2.258496,0.272567,0.877272,5.950600,6.026934,0.735623
4.740000,0.813313,2.301377,1.409172,1.281327,0.560213,-0.102691,-0.596224,-0.866033,0.056783,-2.199646,0.331447,0.884167,5.819302,5.748921,0.641909
4.750000,0.826096,2.306936,1.408148,1.275256,0.551570,-0.102079,-0.617932,-0.862436,0.065655,-2.142111,0.387543,0.890080,5.687593,5.470200,0.539145
4.760000,0.838817,2.312409,1.407131,1.268970,0.542966,-0.101378,-0.639071,-0.858292,0.074582,-2.085946,0.440800,0.895008,5.557517,5.192898,0.425181
4.770000,0.851475,2.317796,1.406121,1.262476,0.534406,-0.100587,-0.659655,-0.853629,0.083552,-2.031018,0.491345,0.898654,5.428270,4.916350,0.302602
4.780000,0.864066,2.323097,1.405119,1.255779,0.525895,-0.099707,-0.679696,-0.848474,0.092551,-1.977376,0.539131,0.901033,5.300389,4.641209,0.171761
4.790000,0.876590,2.328314,1.404127,1.248884,0.517438,-0.098736,-0.699207,-0.842856,0.101568,-1.925004,0.584176,0.902063,5.174412,4.368125,0.033014
4.800000,0.889043,2.333446,1.403145,1.241796,0.509039,-0.097675,-0.718200,-0.836800,0.110588,-1.873880,0.626503,0.901668,5.050876,4.097748,-0.113287
4.810000,0.901425,2.338495,1.402174,1.234522,0.500703,-0.096525,-0.736689,-0.830335,0.119597,-1.824038,0.666084,0.899855,4.931880,3.832211,-0.268850
4.820000,0.913733,2.343460,1.401215,1.227064,0.492434,-0.095284,-0.754685,-0.823487,0.128579,-1.775301,0.703094,0.896361,4.816210,3.570502,-0.431005
4.830000,0.925966,2.348344,1.400268,1.219429,0.484235,-0.093953,-0.772199,-0.816282,0.137519,-1.727702,0.737508,0.891215,4.704211,3.313091,-0.599146
4.840000,0.938121,2.353145,1.399336,1.211622,0.476109,-0.092533,-0.789243,-0.808745,0.146398,-1.681203,0.769372,0.884360,4.596230,3.060449,-0.772665
4.850000,0.950197,2.357866,1.398418,1.203646,0.468061,-0.091025,-0.805827,-0.800903,0.155200,-1.635763,0.798734,0.875746,4.492613,2.813045,-0.950955
4.860000,0.962193,2.362507,1.397516,1.195507,0.460092,-0.089430,-0.821962,-0.792779,0.163908,-1.591397,0.825593,0.865386,4.395265,2.572835,-1.134891
4.870000,0.974107,2.367068,1.396630,1.187208,0.452206,-0.087748,-0.837658,-0.784399,0.172502,-1.547911,0.850145,0.853103,4.302783,2.338620,-1.322204
4.880000,0.985937,2.371551,1.395761,1.178755,0.444405,-0.085980,-0.852923,-0.775784,0.180963,-1.505324,0.872386,0.838933,4.215323,2.110689,-1.512105
4.890000,0.997682,2.375957,1.394910,1.170151,0.436691,-0.084129,-0.867767,-0.766959,0.189274,-1.463587,0.892381,0.822855,4.133039,1.889329,-1.703806
4.900000,1.009340,2.380285,1.394079,1.161401,0.429066,-0.082195,-0.882198,-0.757944,0.197414,-1.422646,0.910195,0.804854,4.056088,1.674829,-1.896518
4.910000,1.020909,2.384538,1.393267,1.152509,0.421533,-0.080181,-0.896223,-0.748762,0.205365,-1.382499,0.925848,0.784948,3.985946,1.468823,-2.090063
4.920000,1.032389,2.388716,1.392475,1.143478,0.414092,-0.078089,-0.909850,-0.739434,0.213107,-1.342968,0.939536,0.763082,3.921285,1.270087,-2.282969
4.930000,1.043778,2.392820,1.391705,1.134313,0.406745,-0.075920,-0.923084,-0.729978,0.220620,-1.304055,0.951274,0.739293,3.862100,1.078745,-2.474372
4.940000,1.055075,2.396852,1.390957,1.125018,0.399492,-0.073677,-0.935933,-0.720415,0.227886,-1.265707,0.961136,0.713602,3.808384,0.894920,-2.663410
4.950000,1.066278,2.400811,1.390232,1.115596,0.392337,-0.071363,-0.948400,-0.710761,0.234886,-1.227869,0.969198,0.686036,3.760131,0.718734,-2.849218
4.960000,1.077387,2.404699,1.389530,1.106051,0.385277,-0.068980,-0.960492,-0.701037,0.241600,-1.190522,0.975493,0.656617,3.718243,0.551405,-3.030559
4.970000,1.088399,2.408517,1.388852,1.096387,0.378316,-0.066532,-0.972212,-0.691257,0.248012,-1.153527,0.980203,0.625424,3.681695,0.391829,-3.206991
4.980000,1.099314,2.412265,1.388200,1.086608,0.371452,-0.064021,-0.983564,-0.681438,0.254103,-1.116871,0.983356,0.592496,3.650368,0.239992,-3.377697
4.990000,1.110131,2.415946,1.387572,1.076717,0.364687,-0.061451,-0.994550,-0.671595,0.259856,-1.080503,0.985029,0.557892,3.624147,0.095885,-3.541862
5.000000,1.120848,2.419559,1.386971,1.066718,0.358021,-0.058825,-1.005175,-0.661742,0.265256,-1.044372,0.985299,0.521683,3.602913,-0.040504,-3.698667
5.010000,1.131465,2.423107,1.386396,1.056615,0.351452,-0.056147,-1.015439,-0.651894,0.270284,-1.008445,0.984213,0.483894,3.586974,-0.168403,-3.845987
5.020000,1.141980,2.426589,1.385848,1.046411,0.344983,-0.053421,-1.025344,-0.642062,0.274929,-0.972635,0.981921,0.444734,3.575735,-0.288701,-3.984475
5.030000,1.152393,2.430007,1.385328,1.036109,0.338611,-0.050650,-1.034892,-0.632259,0.279175,-0.936915,0.978464,0.404236,3.569029,-0.401507,-4.113473
5.040000,1.162702,2.433361,1.384835,1.025714,0.332337,-0.047839,-1.044082,-0.622496,0.283009,-0.901240,0.973916,0.362499,3.566685,-0.506926,-4.232326
5.050000,1.172907,2.436654,1.384371,1.015229,0.326161,-0.044991,-1.052917,-0.612784,0.286421,-0.865568,0.968350,0.319626,3.568533,-0.605066,-4.340376
5.060000,1.183006,2.439885,1.383935,1.004657,0.320082,-0.042112,-1.061394,-0.603133,0.289398,-0.829856,0.961820,0.275648,3.574401,-0.695563,-4.434920
5.070000,1.192999,2.443056,1.383529,0.994002,0.314098,-0.039205,-1.069513,-0.593551,0.291931,-0.794067,0.954441,0.230876,3.584124,-0.779053,-4.517599
5.080000,1.202886,2.446167,1.383151,0.983268,0.308210,-0.036275,-1.077275,-0.584046,0.294013,-0.758161,0.946261,0.185337,3.597534,-0.855700,-4.588007
5.090000,1.212664,2.449220,1.382803,0.972458,0.302417,-0.033326,-1.084676,-0.574628,0.295636,-0.722104,0.937349,0.139158,3.614461,-0.925669,-4.645739
5.100000,1.222335,2.452216,1.382485,0.961575,0.296717,-0.030363,-1.091716,-0.565302,0.296794,-0.685861,0.927770,0.092466,3.634737,-0.989125,-4.690387
5.110000,1.231896,2.455155,1.382196,0.950625,0.291111,-0.027392,-1.098392,-0.556075,0.297483,-0.649388,0.917579,0.045296,3.657926,-1.046019,-4.719051
5.120000,1.241347,2.458038,1.381937,0.939609,0.285596,-0.024415,-1.104703,-0.546952,0.297699,-0.612680,0.906860,-0.001981,3.684160,-1.096755,-4.734125
5.130000,1.250688,2.460867,1.381708,0.928532,0.280171,-0.021439,-1.110645,-0.537939,0.297443,-0.575695,0.895664,-0.049341,3.713301,-1.141523,-4.735511
5.140000,1.259917,2.463642,1.381508,0.917397,0.274836,-0.018468,-1.116216,-0.529040,0.296713,-0.538405,0.884049,-0.096645,3.745215,-1.180515,-4.723107
5.150000,1.269035,2.466364,1.381338,0.906209,0.269590,-0.015507,-1.121412,-0.520259,0.295510,-0.500782,0.872073,-0.143757,3.779764,-1.213921,-4.696814
5.160000,1.278041,2.469034,1.381198,0.894970,0.264431,-0.012559,-1.126230,-0.511600,0.293837,-0.462790,0.859787,-0.190638,3.816521,-1.241888,-4.653923
5.170000,1.286935,2.471653,1.381087,0.883685,0.259358,-0.009631,-1.130667,-0.503064,0.291699,-0.424431,0.847250,-0.236906,3.855678,-1.264656,-4.597261
5.180000,1.295715,2.474222,1.381005,0.872358,0.254369,-0.006727,-1.134718,-0.494655,0.289101,-0.385669,0.834511,-0.282538,3.897133,-1.282420,-4.527048
5.190000,1.304382,2.476741,1.380953,0.860992,0.249464,-0.003851,-1.138379,-0.486375,0.286051,-0.346481,0.821618,-0.327402,3.940787,-1.295376,-4.443504
5.200000,1.312935,2.479211,1.380928,0.849592,0.244641,-0.001007,-1.141646,-0.478223,0.282556,-0.306846,0.808619,-0.371365,3.986538,-1.303721,-4.346849
5.210000,1.321373,2.481634,1.380932,0.838161,0.239899,0.001799,-1.144514,-0.470202,0.278626,-0.266741,0.795559,-0.414390,4.034214,-1.307679,-4.234920
5.220000,1.329698,2.484009,1.380964,0.826703,0.235237,0.004564,-1.146979,-0.462312,0.274273,-0.226152,0.782480,-0.456128,4.083796,-1.307413,-4.110611
5.230000,1.337907,2.486339,1.381023,0.815222,0.230652,0.007283,-1.149035,-0.454553,0.269508,-0.185059,0.769424,-0.496563,4.135192,-1.303116,-3.974430
5.240000,1.346002,2.488623,1.381110,0.803723,0.226145,0.009953,-1.150678,-0.446923,0.264346,-0.143443,0.756431,-0.535579,4.188310,-1.294980,-3.826890
5.250000,1.353982,2.490862,1.381222,0.792210,0.221714,0.012569,-1.151902,-0.439424,0.258801,-0.101287,0.743537,-0.573065,4.243059,-1.283197,-3.668501
5.260000,1.361846,2.493057,1.381361,0.780687,0.217356,0.015127,-1.152702,-0.432052,0.252889,-0.058590,0.730779,-0.608987,4.299684,-1.267982,-3.497932
5.270000,1.369596,2.495209,1.381525,0.769158,0.213072,0.017625,-1.153072,-0.424808,0.246628,-0.015304,0.718189,-0.643073,4.357716,-1.249502,-3.317761
5.280000,1.377230,2.497319,1.381713,0.757627,0.208860,0.020059,-1.153006,-0.417688,0.240034,0.028569,0.705800,-0.675313,4.417020,-1.227947,-3.128726
5.290000,1.384748,2.499387,1.381926,0.746099,0.204718,0.022425,-1.152499,-0.410691,0.233128,0.073041,0.693640,-0.705621,4.477466,-1.203505,-2.931562
5.300000,1.392152,2.501413,1.382161,0.734578,0.200646,0.024720,-1.151544,-0.403814,0.225928,0.118122,0.681738,-0.733920,4.538919,-1.176368,-2.727006
5.310000,1.399440,2.503400,1.382420,0.723070,0.196641,0.026943,-1.150135,-0.397055,0.218456,0.163790,0.670120,-0.760181,4.602058,-1.146693,-2.514729
5.320000,1.406613,2.505346,1.382700,0.711577,0.192704,0.029089,-1.148266,-0.390411,0.210732,0.210129,0.658811,-0.784242,4.665839,-1.114704,-2.296664
5.330000,1.413671,2.507254,1.383001,0.700106,0.188833,0.031157,-1.145930,-0.383878,0.202778,0.257108,0.647833,-0.806098,4.730032,-1.080595,-2.073677
5.340000,1.420615,2.509123,1.383323,0.688660,0.185026,0.033144,-1.143121,-0.377453,0.194617,0.304730,0.637205,-0.825702,4.794403,-1.044559,-1.846635
5.350000,1.427445,2.510955,1.383664,0.677245,0.181283,0.035048,-1.139833,-0.371132,0.186272,0.352996,0.626947,-0.843020,4.858721,-1.006789,-1.616405
5.360000,1.434160,2.512749,1.384024,0.665865,0.177603,0.036869,-1.136060,-0.364913,0.177765,0.401855,0.617071,-0.858029,4.923989,-0.967394,-1.383699
5.370000,1.440762,2.514507,1.384401,0.654526,0.173985,0.038603,-1.131794,-0.358790,0.169119,0.451418,0.607600,-0.870696,4.988589,-0.926662,-1.149558
5.380000,1.447251,2.516229,1.384795,0.643231,0.170427,0.040251,-1.127029,-0.352759,0.160359,0.501623,0.598542,-0.881018,5.052137,-0.884796,-0.914868
5.390000,1.453627,2.517916,1.385206,0.631987,0.166929,0.041810,-1.121759,-0.346817,0.151507,0.552456,0.589907,-0.888995,5.114250,-0.842000,-0.680515
5.400000,1.459891,2.519568,1.385631,0.620797,0.163490,0.043280,-1.115978,-0.340960,0.142586,0.603902,0.581704,-0.894633,5.174544,-0.798477,-0.447385
5.410000,1.466043,2.521186,1.386071,0.609669,0.160110,0.044662,-1.109680,-0.335182,0.133622,0.655881,0.573935,-0.897919,5.234117,-0.754326,-0.217127
5.420000,1.472084,2.522770,1.386524,0.598606,0.156787,0.045953,-1.102859,-0.329480,0.124636,0.708509,0.566614,-0.898951,5.290923,-0.709868,0.010231
5.430000,1.478015,2.524322,1.386990,0.587613,0.153520,0.047154,-1.095508,-0.323848,0.115650,0.761689,0.559738,-0.897727,5.344399,-0.665320,0.233894
5.440000,1.483837,2.525841,1.387467,0.576697,0.150309,0.048266,-1.087623,-0.318283,0.106689,0.815384,0.553307,-0.894288,5.393979,-0.620898,0.453072
5.450000,1.489550,2.527328,1.387955,0.565863,0.147154,0.049288,-1.079199,-0.312781,0.097772,0.869553,0.547319,-0.888683,5.439099,-0.576819,0.666971
5.460000,1.495154,2.528784,1.388452,0.555115,0.144054,0.050222,-1.070231,-0.307335,0.088923,0.924092,0.541766,-0.880907,5.480649,-0.533225,0.873252
5.470000,1.500652,2.530209,1.388959,0.544460,0.141007,0.051067,-1.060716,-0.301944,0.080161,0.979082,0.536649,-0.871171,5.516432,-0.490415,1.072858
5.480000,1.506044,2.531604,1.389473,0.533903,0.138014,0.051825,-1.050649,-0.296601,0.071506,1.034399,0.531955,-0.859475,5.545706,-0.448615,1.265187
5.490000,1.511331,2.532970,1.389995,0.523449,0.135075,0.052497,-1.040027,-0.291303,0.062977,1.089972,0.527672,-0.845894,5.567729,-0.408051,1.449637
5.500000,1.516513,2.534306,1.390523,0.513104,0.132188,0.053085,-1.028848,-0.286046,0.054594,1.145726,0.523789,-0.830510,5.581757,-0.368948,1.625602
5.510000,1.521593,2.535614,1.391057,0.502874,0.129354,0.053590,-1.017112,-0.280826,0.046374,1.201532,0.520288,-0.813330,5.588214,-0.331542,1.790409
5.520000,1.526571,2.536893,1.391595,0.492764,0.126572,0.054013,-1.004818,-0.275639,0.038333,1.257407,0.517152,-0.794641,5.585049,-0.296048,1.945780
5.530000,1.531449,2.538145,1.392137,0.482779,0.123841,0.054357,-0.991965,-0.270482,0.030486,1.313198,0.514360,-0.774447,5.571378,-0.262689,2.091366
5.540000,1.536227,2.539370,1.392682,0.472926,0.121162,0.054624,-0.978554,-0.265351,0.022848,1.368796,0.511890,-0.752847,5.546316,-0.231689,2.226818
5.550000,1.540908,2.540569,1.393229,0.463210,0.118534,0.054815,-0.964590,-0.260243,0.015433,1.424083,0.509718,-0.729945,5.508977,-0.203273,2.351787
5.560000,1.545492,2.541741,1.393778,0.453636,0.115957,0.054933,-0.950075,-0.255156,0.008254,1.478906,0.507820,-0.705758,5.459131,-0.177785,2.463663
5.570000,1.549981,2.542888,1.394327,0.444210,0.113431,0.054981,-0.935014,-0.250086,0.001322,1.533190,0.506157,-0.680608,5.395159,-0.155314,2.564634
5.580000,1.554377,2.544010,1.394877,0.434938,0.110955,0.054960,-0.919413,-0.245032,-0.005355,1.586759,0.504703,-0.654502,5.316095,-0.136071,2.654626
5.590000,1.558680,2.545107,1.395426,0.425824,0.108530,0.054874,-0.903281,-0.239991,-0.011765,1.639458,0.503424,-0.627552,5.220975,-0.120263,2.733569
5.600000,1.562894,2.546181,1.395974,0.416874,0.106155,0.054726,-0.886627,-0.234963,-0.017903,1.691122,0.502286,-0.599868,5.108833,-0.108101,2.801389
5.610000,1.567018,2.547231,1.396521,0.408093,0.103831,0.054517,-0.869463,-0.229945,-0.023760,1.741571,0.501256,-0.571479,4.978805,-0.099956,2.855923
5.620000,1.571056,2.548258,1.397064,0.399486,0.101556,0.054252,-0.851801,-0.224938,-0.029331,1.790630,0.500280,-0.542693,4.829813,-0.095856,2.899446
5.630000,1.575009,2.549262,1.397605,0.391059,0.099332,0.053932,-0.833656,-0.219940,-0.034612,1.838101,0.499325,-0.513526,4.660879,-0.095990,2.932139
5.640000,1.578878,2.550244,1.398143,0.382815,0.097158,0.053560,-0.815045,-0.214951,-0.039601,1.883778,0.498346,-0.484085,4.471027,-0.100548,2.954188
5.650000,1.582666,2.551205,1.398676,0.374759,0.095033,0.053141,-0.795987,-0.209973,-0.044294,1.927448,0.497299,-0.454477,4.259277,-0.109718,2.965774
5.660000,1.586374,2.552145,1.399206,0.366896,0.092958,0.052675,-0.776503,-0.205006,-0.048689,1.968889,0.496130,-0.424740,4.024614,-0.123561,2.965466
5.670000,1.590004,2.553065,1.399730,0.359230,0.090933,0.052168,-0.756617,-0.200051,-0.052789,2.007863,0.494805,-0.395129,3.766104,-0.142412,2.955261
5.680000,1.593559,2.553964,1.400249,0.351765,0.088957,0.051621,-0.736355,-0.195110,-0.056592,2.044128,0.493265,-0.365667,3.482775,-0.166476,2.935539
5.690000,1.597040,2.554844,1.400762,0.344505,0.087031,0.051037,-0.715744,-0.190186,-0.060103,2.077432,0.491457,-0.336448,3.173653,-0.195959,2.906682
5.700000,1.600450,2.555705,1.401269,0.337451,0.085153,0.050420,-0.694817,-0.185282,-0.063322,2.107512,0.489327,-0.307562,2.837767,-0.231066,2.869072
5.710000,1.603790,2.556547,1.401770,0.330609,0.083325,0.049771,-0.673606,-0.180401,-0.066255,2.134082,0.486793,-0.279057,2.474479,-0.271410,2.822135
5.720000,1.607063,2.557371,1.402265,0.323980,0.081545,0.049095,-0.652148,-0.175548,-0.068905,2.156891,0.483852,-0.251103,2.082440,-0.317862,2.767324
5.730000,1.610270,2.558178,1.402752,0.317567,0.079814,0.048394,-0.630482,-0.170726,-0.071279,2.175631,0.480415,-0.223735,1.660635,-0.370699,2.705136
5.740000,1.613415,2.558968,1.403233,0.311371,0.078130,0.047671,-0.608650,-0.165941,-0.073382,2.190001,0.476416,-0.197024,1.208051,-0.430198,2.636069
5.750000,1.616498,2.559741,1.403706,0.305394,0.076495,0.046928,-0.586697,-0.161200,-0.075222,2.199686,0.471787,-0.171035,0.723674,-0.496639,2.560622
5.760000,1.619523,2.560498,1.404171,0.299637,0.074906,0.046167,-0.564665,-0.156502,-0.076805,2.205105,0.466965,-0.145821,0.187795,-0.583075,2.479041
5.770000,1.622492,2.561239,1.404629,0.294101,0.073364,0.045392,-0.542614,-0.151864,-0.078141,2.204172,0.460677,-0.121461,-0.379616,-0.675443,2.392106
5.780000,1.625406,2.561965,1.405079,0.288785,0.071869,0.044605,-0.520601,-0.147292,-0.079238,2.197412,0.453440,-0.097995,-0.977284,-0.772456,2.300346
5.790000,1.628268,2.562677,1.405521,0.283688,0.070418,0.043808,-0.498686,-0.142798,-0.080104,2.184529,0.445216,-0.075468,-1.603932,-0.872829,2.204288
5.800000,1.631081,2.563374,1.405955,0.278811,0.069012,0.043004,-0.476932,-0.138391,-0.080750,2.165241,0.435977,-0.053922,-2.258286,-0.975274,2.104463
5.810000,1.633845,2.564057,1.406381,0.274145,0.067648,0.042194,-0.455252,-0.133988,-0.081186,2.153250,0.434346,-0.033404,-3.292034,-1.296669,2.001745
5.820000,1.636564,2.564727,1.406799,0.269700,0.066329,0.041381,-0.433901,-0.129715,-0.081422,2.115218,0.419874,-0.013911,-4.307718,-1.590850,1.896275
5.830000,1.639240,2.565384,1.407209,0.265466,0.065053,0.040566,-0.412980,-0.125600,-0.081468,2.067304,0.402713,0.004514,-5.260841,-1.829815,1.788536
5.840000,1.641874,2.566028,1.407610,0.261438,0.063817,0.039752,-0.392585,-0.121667,-0.081335,2.010358,0.383555,0.021853,-6.106908,-1.985565,1.679017
5.850000,1.644469,2.566660,1.408004,0.257612,0.062619,0.038940,-0.372799,-0.117932,-0.081034,1.945671,0.363372,0.038090,-6.801423,-2.030098,1.568202
5.860000,1.647027,2.567281,1.408389,0.253980,0.061457,0.038132,-0.353692,-0.114399,-0.080577,1.874983,0.343417,0.053215,-7.299890,-1.935414,1.456578
5.870000,1.649549,2.567890,1.408766,0.250536,0.060330,0.037329,-0.335312,-0.111058,-0.079974,1.800475,0.325221,0.067221,-7.557815,-1.673513,1.344631
5.880000,1.652038,2.568487,1.409136,0.247271,0.059236,0.036533,-0.317686,-0.107883,-0.079236,1.724777,0.310597,0.080108,-7.530702,-1.216393,1.232847
5.890000,1.654495,2.569074,1.409497,0.244179,0.058172,0.035745,-0.300810,-0.104827,-0.078375,1.650960,0.301637,0.091880,-7.174055,-0.536055,1.121712
5.900000,1.656923,2.569651,1.409851,0.241253,0.057139,0.034966,-0.284649,-0.101823,-0.077402,1.582542,0.300714,0.102546,-6.443378,0.395503,1.011712
5.910000,1.659321,2.570217,1.410196,0.238484,0.056136,0.034197,-0.269128,-0.098777,-0.076328,1.523487,0.310478,0.112120,-5.294177,1.606280,0.903333
5.920000,1.661693,2.570774,1.410534,0.235868,0.055164,0.033439,-0.254133,-0.095568,-0.075164,1.478202,0.333863,0.120620,-3.681955,3.124278,0.797061
5.930000,1.664039,2.571321,1.410865,0.233400,0.054226,0.032694,-0.239502,-0.092044,-0.073919,1.451540,0.374081,0.128070,-1.562218,4.977497,0.693383
5.940000,1.666361,2.571858,1.411188,0.231078,0.053325,0.031961,-0.225023,-0.088019,-0.072606,1.448798,0.434624,0.134498,1.109531,7.193938,0.592784
5.950000,1.668661,2.572387,1.411504,0.228900,0.052468,0.031242,-0.210427,-0.083271,-0.071233,1.475719,0.519264,0.139937,4.377787,9.801601,0.495750
5.960000,1.670940,2.572908,1.411813,0.226871,0.051663,0.030537,-0.195389,-0.077540,-0.069810,1.538490,0.632053,0.144426,8.287045,12.828486,0.402768
5.970000,1.673199,2.573421,1.412115,0.224995,0.050921,0.029846,-0.179516,-0.070522,-0.068347,1.643745,0.777324,0.148008,12.881801,16.302595,0.314323
5.980000,1.675440,2.573927,1.412410,0.223285,0.050258,0.029170,-0.162349,-0.061870,-0.066853,1.798560,0.959689,0.150729,18.206550,20.251928,0.230902
5.990000,1.677665,2.574426,1.412699,0.221754,0.049690,0.028509,-0.143355,-0.051188,-0.065335,2.010457,1.184040,0.152644,24.305789,24.704486,0.152991
6.000000,1.679876,2.574921,1.412980,0.220426,0.049242,0.027863,-0.121923,-0.038032,-0.063802,2.287405,1.455550,0.153809,31.224011,29.688268,0.081076
