time,x,y,z,vx,vy,vz,ax,ay,az,jx,jy,jz,sx,sy,sz,roll,pitch,yaw,p,q,r
0.000000,-2.559376,-2.324199,-1.416631,-0.003806,-0.018015,-0.005154,-0.209038,0.768809,0.065316,4.218692,-24.926384,-0.443768,-36.723678,694.514267,-21.763423,0.078714,0.021448,0.000000,-2.544387,-0.432357,-0.000000
0.010000,-2.559424,-2.324344,-1.416680,-0.005691,-0.011461,-0.004527,-0.168621,0.552521,0.059826,3.871298,-18.501924,-0.650651,-32.799632,592.121237,-19.621228,0.056599,0.017292,0.000000,-1.894624,-0.397447,0.000000
0.020000,-2.559488,-2.324434,-1.416722,-0.007189,-0.006767,-0.003964,-0.131486,0.395530,0.052374,3.561822,-13.049967,-0.836359,-29.138715,499.926134,-17.528727,0.040510,0.013474,0.000000,-1.338366,-0.365818,-0.000000
0.030000,-2.559566,-2.324484,-1.416759,-0.008331,-0.003384,-0.003485,-0.097266,0.288612,0.043168,3.287669,-8.471159,-1.001397,-25.734194,417.403622,-15.487785,0.029540,0.009959,0.000000,-0.869468,-0.337456,-0.000000
0.040000,-2.559654,-2.324505,-1.416792,-0.009143,-0.000855,-0.003106,-0.065623,0.223510,0.032413,3.046306,-4.671403,-1.146292,-22.579335,344.028367,-13.500268,0.022855,0.006711,0.000000,-0.480137,-0.312251,-0.000000
0.050000,-2.559748,-2.324503,-1.416822,-0.009651,0.001201,-0.002842,-0.036239,0.192883,0.020308,2.835272,-1.561852,-1.271587,-19.667404,279.275034,-11.568041,0.019700,0.003702,0.000000,-0.162015,-0.290039,0.000000
0.060000,-2.559846,-2.324481,-1.416849,-0.009875,0.003096,-0.002704,-0.008824,0.190252,0.007045,2.652171,0.941086,-1.377844,-16.991666,222.618287,-9.692969,0.019405,0.000900,0.000000,0.093242,-0.270623,-0.000000
0.070000,-2.559945,-2.324440,-1.416876,-0.009833,0.005080,-0.002704,0.016890,0.209945,-0.007188,2.494674,2.915751,-1.465643,-14.545388,173.532793,-7.876919,0.021382,-0.001720,0.000000,0.293668,-0.253797,0.000000
0.080000,-2.560042,-2.324379,-1.416904,-0.009542,0.007353,-0.002850,0.041147,0.247050,-0.022208,2.360521,4.435228,-1.535585,-12.321836,131.493217,-6.121756,0.025121,-0.004185,0.000000,0.446856,-0.239347,-0.000000
0.090000,-2.560135,-2.324292,-1.416934,-0.009014,0.010065,-0.003150,0.064170,0.297359,-0.037842,2.247517,5.567351,-1.588288,-10.314274,95.974223,-4.429346,0.030186,-0.006516,0.000000,0.559900,-0.227060,-0.000000
0.100000,-2.560221,-2.324175,-1.416967,-0.008262,0.013332,-0.003609,0.086161,0.357315,-0.053919,2.153538,6.374697,-1.624387,-8.515970,66.450477,-2.801553,0.036207,-0.008735,0.000000,0.639367,-0.216728,0.000000
0.110000,-2.560299,-2.324023,-1.417007,-0.007294,0.017234,-0.004229,0.107298,0.423962,-0.070277,2.076523,6.914593,-1.644540,-6.920188,42.396645,-1.240245,0.042881,-0.010859,0.000000,0.691285,-0.208145,0.000000
0.120000,-2.560366,-2.323828,-1.417053,-0.006118,0.021825,-0.005015,0.127741,0.494890,-0.086759,2.014481,7.239112,-1.649420,-5.520195,23.287390,0.252715,0.049959,-0.012907,0.000000,0.721136,-0.201114,0.000000
0.130000,-2.560421,-2.323584,-1.417107,-0.004741,0.027139,-0.005965,0.147631,0.568183,-0.103216,1.965489,7.395072,-1.639720,-4.309257,8.597379,1.675459,0.057247,-0.014891,0.000000,0.733842,-0.195442,-0.000000
0.140000,-2.560461,-2.323283,-1.417172,-0.003167,0.033192,-0.007078,0.167088,0.642368,-0.119507,1.927688,7.424039,-1.616151,-3.280640,-2.198723,3.026122,0.064594,-0.016826,0.000000,0.733762,-0.190945,0.000000
0.150000,-2.560484,-2.322918,-1.417249,-0.001400,0.039986,-0.008354,0.186216,0.716362,-0.135496,1.899291,7.362326,-1.579444,-2.427609,-9.626251,4.302840,0.071892,-0.018721,0.000000,0.724689,-0.187445,-0.000000
0.160000,-2.560488,-2.322481,-1.417340,0.000557,0.047516,-0.009787,0.205100,0.789417,-0.151055,1.878573,7.240992,-1.530347,-1.743431,-14.210539,5.503746,0.079068,-0.020587,0.000000,0.709845,-0.184771,-0.000000
0.170000,-2.560472,-2.321965,-1.417446,0.002701,0.055770,-0.011373,0.223807,0.861070,-0.166064,1.863882,7.085842,-1.469628,-1.221371,-16.476924,6.626974,0.086079,-0.022431,0.000000,0.691886,-0.182759,-0.000000
0.180000,-2.560433,-2.321363,-1.417568,0.005032,0.064732,-0.013106,0.242392,0.931090,-0.180411,1.853628,6.917428,-1.398073,-0.854694,-16.950739,7.670660,0.092903,-0.024258,0.000000,0.672912,-0.181253,0.000000
0.190000,-2.560371,-2.320668,-1.417708,0.007549,0.074386,-0.014979,0.260890,0.999426,-0.193992,1.846292,6.751051,-1.316486,-0.636668,-16.157318,8.632937,0.099539,-0.026073,0.000000,0.654465,-0.180105,0.000000
0.200000,-2.560282,-2.319873,-1.417868,0.010250,0.084715,-0.016983,0.279323,1.066152,-0.206710,1.840422,6.596755,-1.225692,-0.560558,-14.621998,9.511939,0.105997,-0.027878,0.000000,0.637548,-0.179172,0.000000
0.210000,-2.560165,-2.318972,-1.418048,0.013133,0.095656,-0.019110,0.297767,1.133218,-0.218477,1.840986,6.625290,-1.126510,-0.780156,-17.061805,10.305255,0.112474,-0.029683,0.000000,0.638914,-0.178944,-0.000000
0.220000,-2.560018,-2.317958,-1.418251,0.016203,0.107316,-0.021349,0.316133,1.198580,-0.229215,1.831622,6.443330,-1.019852,-1.108545,-19.297114,11.011633,0.118769,-0.031479,0.000000,0.619876,-0.177809,0.000000
0.230000,-2.559840,-2.316824,-1.418476,0.019456,0.119621,-0.023690,0.334387,1.262013,-0.238852,1.818541,6.239989,-0.906573,-1.519335,-21.339989,11.629274,0.124865,-0.033264,0.000000,0.599116,-0.176387,-0.000000
0.240000,-2.559629,-2.315563,-1.418725,0.022890,0.132550,-0.026122,0.352489,1.323314,-0.247328,1.801049,6.017131,-0.787568,-1.986135,-23.202498,12.156379,0.130746,-0.035034,0.000000,0.576833,-0.174614,-0.000000
0.250000,-2.559382,-2.314171,-1.418998,0.026505,0.146080,-0.028633,0.370392,1.382297,-0.254588,1.778719,5.776500,-0.663753,-2.482556,-24.896707,12.591150,0.136397,-0.036785,0.000000,0.553203,-0.172451,0.000000
0.260000,-2.559098,-2.312640,-1.419298,0.030299,0.160186,-0.031210,0.387971,1.438825,-0.260580,1.744382,5.522897,-0.535212,-2.805275,-26.514978,12.910396,0.141810,-0.038506,0.000000,0.528708,-0.169199,0.000000
0.270000,-2.558775,-2.310965,-1.419623,0.034266,0.174846,-0.033840,0.405269,1.492703,-0.265283,1.714720,5.250298,-0.404901,-3.126498,-27.979249,13.136329,0.146968,-0.040202,0.000000,0.502718,-0.166488,-0.000000
0.280000,-2.558412,-2.309141,-1.419975,0.038403,0.190031,-0.036511,0.422255,1.543785,-0.268673,1.681873,4.963818,-0.272794,-3.441501,-29.291754,13.269772,0.151861,-0.041871,0.000000,0.475730,-0.163546,-0.000000
0.290000,-2.558007,-2.307163,-1.420353,0.042710,0.205712,-0.039209,0.438896,1.591938,-0.270736,1.645926,4.664962,-0.139811,-3.745557,-30.454728,13.311544,0.156480,-0.043511,0.000000,0.447871,-0.160379,-0.000000
0.300000,-2.557557,-2.305025,-1.420759,0.047180,0.221860,-0.041922,0.455163,1.637048,-0.271469,1.607014,4.355214,-0.006866,-4.033942,-31.470405,13.262467,0.160816,-0.045118,0.000000,0.419255,-0.156996,0.000000
0.310000,-2.557063,-2.302724,-1.421192,0.051812,0.238443,-0.044635,0.471007,1.678998,-0.270866,1.563425,4.034820,0.126070,-4.254186,-32.310273,13.099829,0.164861,-0.046689,0.000000,0.389890,-0.153227,0.000000
0.320000,-2.556521,-2.300255,-1.421651,0.056600,0.255429,-0.047335,0.486425,1.717718,-0.268954,1.519863,3.708100,0.255894,-4.455154,-33.011077,12.850865,0.168612,-0.048224,0.000000,0.360118,-0.149517,0.000000
0.330000,-2.555930,-2.297614,-1.422138,0.061539,0.272786,-0.050009,0.501398,1.753139,-0.265758,1.474383,3.375042,0.382812,-4.637967,-33.578815,12.519277,0.172062,-0.049722,0.000000,0.329913,-0.145671,-0.000000
0.340000,-2.555289,-2.294798,-1.422651,0.066626,0.290481,-0.052646,0.515907,1.785202,-0.261310,1.427160,3.036947,0.506016,-4.803747,-34.019487,12.108768,0.175209,-0.051181,0.000000,0.299358,-0.141699,-0.000000
0.350000,-2.554597,-2.291804,-1.423191,0.071856,0.308479,-0.055232,0.529936,1.813865,-0.255653,1.378361,2.695056,0.624736,-4.953614,-34.339092,11.623040,0.178049,-0.052599,0.000000,0.268526,-0.137607,0.000000
0.360000,-2.553852,-2.288628,-1.423756,0.077223,0.326747,-0.057755,0.543469,1.839098,-0.248824,1.328103,2.350838,0.739072,-5.087829,-34.550935,11.044737,0.180579,-0.053977,0.000000,0.237528,-0.133403,-0.000000
0.370000,-2.553052,-2.285268,-1.424346,0.082723,0.345249,-0.060205,0.556493,1.860877,-0.240892,1.276611,2.004730,0.846354,-5.208479,-34.652814,10.401198,0.182799,-0.055311,0.000000,0.206325,-0.129087,-0.000000
0.380000,-2.552197,-2.281722,-1.424960,0.088351,0.363953,-0.062570,0.568997,1.879191,-0.231920,1.223975,1.658131,0.946900,-5.316790,-34.649833,9.698704,0.184705,-0.056602,0.000000,0.175022,-0.124665,-0.000000
0.390000,-2.551285,-2.277988,-1.425597,0.094101,0.382822,-0.064840,0.580969,1.894041,-0.221978,1.170312,1.312066,1.040152,-5.413988,-34.547095,8.943537,0.186299,-0.057847,0.000000,0.143674,-0.120137,-0.000000
0.400000,-2.550314,-2.274065,-1.426256,0.099969,0.401822,-0.067006,0.592400,1.905437,-0.211142,1.115728,0.967505,1.125616,-5.501298,-34.349705,8.141977,0.187579,-0.059046,0.000000,0.112332,-0.115504,-0.000000
0.410000,-2.549285,-2.269952,-1.426937,0.105948,0.420919,-0.069060,0.603283,1.913403,-0.199489,1.060485,0.625729,1.203267,-5.584245,-34.071835,7.289982,0.188546,-0.060198,0.000000,0.081089,-0.110785,0.000000
0.420000,-2.548195,-2.265647,-1.427637,0.112032,0.440079,-0.070994,0.613607,1.917963,-0.187106,1.004262,0.286758,1.271768,-5.659232,-33.708410,6.405421,0.189201,-0.061302,0.000000,0.049893,-0.105932,-0.000000
0.430000,-2.547044,-2.261150,-1.428356,0.118218,0.459267,-0.072800,0.623366,1.919152,-0.174083,0.947325,-0.048167,1.331292,-5.726957,-33.263424,5.495838,0.189545,-0.062355,0.000000,0.018841,-0.100967,-0.000000
0.440000,-2.545830,-2.256461,-1.429093,0.124498,0.478450,-0.074473,0.632552,1.917015,-0.160511,0.889744,-0.378252,1.381626,-5.788123,-32.740872,4.568779,0.189578,-0.063357,0.000000,-0.012018,-0.095887,-0.000000
0.450000,-2.544554,-2.251581,-1.429845,0.130867,0.497596,-0.076009,0.641159,1.911605,-0.146482,0.831582,-0.702740,1.422634,-5.843428,-32.144747,3.631788,0.189305,-0.064307,0.000000,-0.042633,-0.090690,-0.000000
0.460000,-2.543213,-2.246510,-1.430612,0.137319,0.516672,-0.077402,0.649183,1.902983,-0.132090,0.773035,-1.020769,1.454161,-5.897174,-31.482723,2.694775,0.188727,-0.065204,0.000000,-0.072940,-0.085390,-0.000000
0.470000,-2.541807,-2.241248,-1.431393,0.143849,0.535645,-0.078650,0.656618,1.891213,-0.117430,0.713815,-1.332010,1.476440,-5.946018,-30.754663,1.762632,0.187847,-0.066046,0.000000,-0.102916,-0.079952,0.000000
0.480000,-2.540336,-2.235797,-1.432185,0.150449,0.554486,-0.079750,0.663458,1.876368,-0.102593,0.654131,-1.635654,1.489454,-5.990221,-29.964109,0.842613,0.186670,-0.066831,0.000000,-0.132491,-0.074392,0.000000
0.490000,-2.538798,-2.230159,-1.432987,0.157116,0.573163,-0.080701,0.669699,1.858527,-0.087671,0.594026,-1.931095,1.493357,-6.030042,-29.114607,-0.058027,0.185199,-0.067559,0.000000,-0.161608,-0.068710,-0.000000
0.500000,-2.537193,-2.224335,-1.433798,0.163841,0.591647,-0.081503,0.675337,1.837776,-0.072755,0.533543,-2.217762,1.488382,-6.065740,-28.209697,-0.932031,0.183439,-0.068229,0.000000,-0.190209,-0.062907,0.000000
0.510000,-2.535521,-2.218327,-1.434617,0.170620,0.609909,-0.082156,0.680370,1.814203,-0.057938,0.472813,-2.495123,1.474280,-6.099831,-27.252756,-1.758250,0.181397,-0.068839,0.000000,-0.218242,-0.056989,0.000000
0.520000,-2.533781,-2.212137,-1.435441,0.177447,0.627922,-0.082662,0.684792,1.787906,-0.043296,0.411660,-2.762663,1.452728,-6.130041,-26.247516,-2.545024,0.179077,-0.069387,0.000000,-0.245620,-0.050948,-0.000000
0.530000,-2.531972,-2.205769,-1.436269,0.184314,0.645658,-0.083023,0.688602,1.758984,-0.028909,0.350225,-3.019924,1.423529,-6.156354,-25.197539,-3.286800,0.176487,-0.069874,0.000000,-0.272292,-0.044792,-0.000000
0.540000,-2.530094,-2.199225,-1.437101,0.191217,0.663093,-0.083242,0.691796,1.727543,-0.014850,0.288546,-3.266477,1.387161,-6.178751,-24.106390,-3.978022,0.173634,-0.070297,0.000000,-0.298194,-0.038528,-0.000000
0.550000,-2.528147,-2.192508,-1.437934,0.198148,0.680201,-0.083322,0.694372,1.693692,-0.001188,0.226663,-3.501927,1.344156,-6.197217,-22.977632,-4.613137,0.170526,-0.070656,0.000000,-0.323262,-0.032162,0.000000
0.560000,-2.526131,-2.185622,-1.438767,0.205102,0.696959,-0.083267,0.696329,1.657543,0.012004,0.164668,-3.725932,1.294236,-6.213072,-21.814415,-5.164687,0.167171,-0.070949,0.000000,-0.347447,-0.025699,-0.000000
0.570000,-2.524045,-2.178570,-1.439599,0.212073,0.713345,-0.083083,0.697665,1.619212,0.024680,0.102475,-3.938132,1.240099,-6.224797,-20.620766,-5.651703,0.163580,-0.071177,0.000000,-0.370647,-0.019150,0.000000
0.580000,-2.521890,-2.171357,-1.440428,0.219053,0.729337,-0.082775,0.698379,1.578820,0.036791,0.040187,-4.138258,1.181427,-6.232211,-19.400301,-6.071314,0.159762,-0.071337,0.000000,-0.392820,-0.012524,-0.000000
0.590000,-2.519664,-2.163985,-1.441254,0.226038,0.744915,-0.082349,0.698469,1.536488,0.048295,-0.022154,-4.326061,1.118907,-6.235132,-18.156633,-6.420647,0.155727,-0.071430,0.000000,-0.413905,-0.005830,0.000000
0.600000,-2.517369,-2.156460,-1.442075,0.233021,0.760060,-0.081811,0.697936,1.492341,0.059158,-0.084500,-4.501325,1.053258,-6.233381,-16.893376,-6.696830,0.151487,-0.071455,0.000000,-0.433846,0.000919,-0.000000
0.610000,-2.515004,-2.148785,-1.442890,0.239995,0.774756,-0.081168,0.696779,1.446505,0.069342,-0.146768,-4.663786,0.984227,-6.227726,-15.616401,-6.871813,0.147054,-0.071411,0.000000,-0.452596,0.007716,-0.000000
0.620000,-2.512569,-2.140966,-1.443698,0.246954,0.788985,-0.080426,0.695000,1.399108,0.078838,-0.208995,-4.813511,0.914950,-6.216919,-14.326790,-6.970986,0.142440,-0.071299,0.000000,-0.470090,0.014538,0.000000
0.630000,-2.510065,-2.133007,-1.444498,0.253893,0.802733,-0.079593,0.692600,1.350278,0.087639,-0.271088,-4.950290,0.845060,-6.200664,-13.027880,-6.994558,0.137657,-0.071118,0.000000,-0.486292,0.021377,0.000000
0.640000,-2.507491,-2.124913,-1.445289,0.260804,0.815986,-0.078676,0.689579,1.300145,0.095740,-0.332989,-5.074048,0.775310,-6.178663,-11.723008,-6.942740,0.132718,-0.070867,0.000000,-0.501162,0.028219,0.000000
0.650000,-2.504849,-2.116689,-1.446071,0.267682,0.828732,-0.077681,0.685941,1.248841,0.103148,-0.394641,-5.184742,0.706455,-6.150619,-10.415514,-6.815744,0.127638,-0.070548,0.000000,-0.514666,0.035049,0.000000
0.660000,-2.502138,-2.108340,-1.446843,0.274521,0.840960,-0.076615,0.681688,1.196497,0.109864,-0.455943,-5.282128,0.638308,-6.117189,-9.114618,-6.590114,0.122430,-0.070161,0.000000,-0.526765,0.041855,-0.000000
0.670000,-2.499359,-2.099872,-1.447603,0.281314,0.852659,-0.075486,0.676823,1.143241,0.115923,-0.516920,-5.366783,0.573836,-6.077004,-7.817054,-6.292624,0.117107,-0.069705,0.000000,-0.537465,0.048616,-0.000000
0.680000,-2.496512,-2.091289,-1.448352,0.288055,0.863822,-0.074299,0.671351,1.089204,0.121352,-0.577459,-5.438489,0.512685,-6.029652,-6.525439,-5.926384,0.111685,-0.069182,0.000000,-0.546739,0.055321,-0.000000
0.690000,-2.493598,-2.082597,-1.449089,0.294739,0.874441,-0.073060,0.665276,1.034515,0.126190,-0.637488,-5.497320,0.455527,-5.974717,-5.242391,-5.494500,0.106177,-0.068592,0.000000,-0.554578,0.061954,0.000000
0.700000,-2.490617,-2.073802,-1.449813,0.301359,0.884510,-0.071777,0.658603,0.979300,0.130478,-0.696927,-5.543374,0.403004,-5.911787,-3.970527,-5.000083,0.100598,-0.067936,0.000000,-0.560979,0.068500,0.000000
0.710000,-2.487571,-2.064909,-1.450524,0.307909,0.894025,-0.070452,0.651340,0.923693,0.134259,-0.755652,-5.576448,0.354999,-5.841536,-2.720772,-4.427941,0.094963,-0.067215,0.000000,-0.565920,0.074947,-0.000000
0.720000,-2.484459,-2.055923,-1.451222,0.314384,0.902983,-0.069093,0.643493,0.867813,0.137598,-0.813679,-5.597470,0.313808,-5.762328,-1.486419,-3.801723,0.089285,-0.066431,0.000000,-0.569474,0.081279,-0.000000
0.730000,-2.481283,-2.046851,-1.451906,0.320777,0.911381,-0.067702,0.635069,0.811784,0.140557,-0.870867,-5.606233,0.279127,-5.673615,-0.269067,-3.126777,0.083578,-0.065584,0.000000,-0.571629,0.087483,0.000000
0.740000,-2.478044,-2.037698,-1.452576,0.327083,0.919219,-0.066283,0.626078,0.755729,0.143204,-0.927118,-5.602913,0.251417,-5.574851,0.929682,-2.408455,0.077857,-0.064676,0.000000,-0.572405,0.093545,-0.000000
0.750000,-2.474742,-2.028469,-1.453232,0.333297,0.926496,-0.064838,0.616530,0.699766,0.145610,-0.982329,-5.587706,0.231085,-5.465487,2.108228,-1.652104,0.072134,-0.063708,0.000000,-0.571829,0.099454,-0.000000
0.760000,-2.471378,-2.019170,-1.453873,0.339412,0.933215,-0.063371,0.606436,0.644017,0.147847,-1.036350,-5.560503,0.218064,-5.346005,3.256932,-0.852479,0.066425,-0.062682,0.000000,-0.569900,0.105194,0.000000
0.770000,-2.467954,-2.009806,-1.454499,0.345424,0.939377,-0.061882,0.595807,0.588593,0.149999,-1.089163,-5.522283,0.213649,-5.214704,4.383218,-0.026823,0.060741,-0.061600,0.000000,-0.566723,0.110759,-0.000000
0.780000,-2.464470,-2.000384,-1.455110,0.351326,0.944988,-0.060371,0.584657,0.533608,0.152148,-1.140602,-5.472916,0.217593,-5.070909,5.486469,0.818219,0.055094,-0.060463,0.000000,-0.562304,0.116134,-0.000000
0.790000,-2.460928,-1.990908,-1.455706,0.357115,0.950051,-0.058838,0.573000,0.479172,0.154379,-1.190538,-5.412633,0.230056,-4.913948,6.566070,1.676000,0.049499,-0.059274,0.000000,-0.556680,0.121310,-0.000000
0.800000,-2.457328,-1.981385,-1.456287,0.362785,0.954574,-0.057283,0.560852,0.425391,0.156778,-1.238835,-5.341675,0.251133,-4.743148,7.621405,2.539873,0.043965,-0.058035,0.000000,-0.549893,0.126274,0.000000
0.810000,-2.453673,-1.971819,-1.456852,0.368330,0.958562,-0.055702,0.548230,0.372375,0.159429,-1.285336,-5.260098,0.280768,-4.558248,8.647068,3.405299,0.038505,-0.056747,0.000000,-0.541966,0.131015,0.000000
0.820000,-2.449962,-1.962215,-1.457401,0.373748,0.962024,-0.054093,0.535152,0.320223,0.162422,-1.329931,-5.168603,0.319120,-4.358112,9.647820,4.263265,0.033129,-0.055413,0.000000,-0.532988,0.135525,0.000000
0.830000,-2.446198,-1.952580,-1.457934,0.379032,0.964969,-0.052452,0.521638,0.269036,0.165840,-1.372445,-5.067225,0.365985,-4.142015,10.623632,5.106866,0.027848,-0.054036,0.000000,-0.522979,0.139792,0.000000
0.840000,-2.442382,-1.942917,-1.458450,0.384179,0.967408,-0.050774,0.507710,0.218911,0.169769,-1.412715,-4.956213,0.421186,-3.909233,11.574475,5.929199,0.022673,-0.052617,0.000000,-0.511980,0.143807,-0.000000
0.850000,-2.438515,-1.933233,-1.458949,0.389185,0.969351,-0.049055,0.493392,0.169943,0.174291,-1.450572,-4.835819,0.484475,-3.659043,12.500320,6.723357,0.017612,-0.051160,0.000000,-0.500034,0.147557,-0.000000
0.860000,-2.434599,-1.923532,-1.459431,0.394046,0.970811,-0.047286,0.478707,0.122224,0.179487,-1.485876,-4.706309,0.555774,-3.389695,13.401613,7.476425,0.012675,-0.049666,0.000000,-0.487180,0.151034,0.000000
0.870000,-2.430635,-1.913819,-1.459895,0.398758,0.971800,-0.045463,0.463684,0.075846,0.185431,-1.518349,-4.567891,0.634135,-3.101616,14.277792,8.188246,0.007871,-0.048140,0.000000,-0.473451,0.154221,-0.000000
0.880000,-2.426624,-1.904098,-1.460340,0.403318,0.972333,-0.043575,0.448350,0.030895,0.192193,-1.547844,-4.420837,0.719381,-2.794207,15.128768,8.852650,0.003209,-0.046583,0.000000,-0.458884,0.157106,-0.000000
0.890000,-2.422569,-1.894373,-1.460766,0.407724,0.972423,-0.041616,0.432737,-0.012543,0.199840,-1.574167,-4.265400,0.811009,-2.466872,15.954455,9.463467,-0.001304,-0.044999,0.000000,-0.443512,0.159678,0.000000
0.900000,-2.418470,-1.884651,-1.461172,0.411972,0.972087,-0.039575,0.416878,-0.054385,0.208432,-1.597113,-4.101833,0.908451,-2.119010,16.754766,10.014529,-0.005659,-0.043390,0.000000,-0.427364,0.161923,-0.000000
0.910000,-2.414330,-1.874933,-1.461557,0.416061,0.971341,-0.037444,0.400806,-0.094556,0.218032,-1.616609,-3.930624,1.011601,-1.746676,17.535538,10.486505,-0.009849,-0.041761,0.000000,-0.410492,0.163837,-0.000000
0.920000,-2.410149,-1.865225,-1.461921,0.419988,0.970202,-0.035211,0.384559,-0.132972,0.228679,-1.632125,-3.751474,1.118534,-1.353030,18.290033,10.888000,-0.013866,-0.040115,0.000000,-0.392861,0.165377,0.000000
0.930000,-2.405931,-1.855530,-1.462261,0.423752,0.968688,-0.032867,0.368177,-0.169560,0.240415,-1.643598,-3.564914,1.229111,-0.937884,19.017437,11.214456,-0.017704,-0.038455,0.000000,-0.374520,0.166538,-0.000000
0.940000,-2.401675,-1.845852,-1.462577,0.427351,0.966817,-0.030399,0.351701,-0.204247,0.253271,-1.650811,-3.371219,1.342558,-0.501049,19.716939,11.461316,-0.021354,-0.036785,0.000000,-0.355490,0.167303,0.000000
0.950000,-2.397384,-1.836195,-1.462869,0.430785,0.964610,-0.027797,0.335175,-0.236962,0.267273,-1.653546,-3.170671,1.458057,-0.042337,20.387724,11.624023,-0.024811,-0.035109,0.000000,-0.335787,0.167653,0.000000
0.960000,-2.393060,-1.826561,-1.463133,0.434055,0.962085,-0.025050,0.318643,-0.267642,0.282444,-1.651836,-2.963934,1.575501,0.444803,21.038369,11.678854,-0.028068,-0.033432,0.000000,-0.315468,0.167591,-0.000000
0.970000,-2.388704,-1.816954,-1.463369,0.437159,0.959264,-0.022145,0.302155,-0.296219,0.298783,-1.644862,-2.750428,1.692186,0.953417,21.657523,11.642765,-0.031118,-0.031758,0.000000,-0.294450,0.167038,0.000000
0.980000,-2.384317,-1.807377,-1.463575,0.440098,0.956168,-0.019071,0.285763,-0.322631,0.316285,-1.632698,-2.530895,1.808046,1.482914,22.243221,11.513543,-0.033955,-0.030091,0.000000,-0.272790,0.165998,-0.000000
0.990000,-2.379902,-1.797832,-1.463750,0.442874,0.952819,-0.015815,0.269519,-0.346818,0.334938,-1.615137,-2.305681,1.922139,2.032703,22.793503,11.288979,-0.036572,-0.028437,0.000000,-0.250502,0.164448,0.000000
1.000000,-2.375460,-1.788321,-1.463891,0.445489,0.949239,-0.012368,0.253479,-0.368727,0.354719,-1.591978,-2.075150,2.033501,2.602193,23.306404,10.966862,-0.038963,-0.026802,0.000000,-0.227599,0.162364,-0.000000
1.010000,-2.370993,-1.778848,-1.463997,0.447945,0.945452,-0.008718,0.237695,-0.388309,0.375606,-1.563394,-1.840041,2.142088,3.200021,23.788974,10.521142,-0.041123,-0.025189,0.000000,-0.204136,0.159755,0.000000
1.020000,-2.366502,-1.769413,-1.464065,0.450244,0.941481,-0.004853,0.222231,-0.405512,0.397544,-1.528332,-1.599914,2.244658,3.815238,24.229134,9.976366,-0.043044,-0.023606,0.000000,-0.180028,0.156510,0.000000
1.030000,-2.361989,-1.760019,-1.464093,0.452391,0.937350,-0.000763,0.207149,-0.420293,0.420479,-1.487037,-1.355610,2.341287,4.446123,24.623820,9.333243,-0.044721,-0.022058,0.000000,-0.155338,0.152644,0.000000
1.040000,-2.357455,-1.750666,-1.464079,0.454389,0.933083,0.003560,0.192512,-0.432612,0.444347,-1.439363,-1.107600,2.430997,5.090955,24.969964,8.592481,-0.046149,-0.020552,0.000000,-0.130087,0.148129,0.000000
1.050000,-2.352901,-1.741357,-1.464021,0.456243,0.928706,0.008126,0.178384,-0.442434,0.469073,-1.385177,-0.856383,2.512814,5.748014,25.264501,7.754789,-0.047321,-0.019095,0.000000,-0.104299,0.142942,0.000000
1.060000,-2.348330,-1.732093,-1.463916,0.457958,0.924243,0.012944,0.164826,-0.449732,0.494585,-1.324801,-0.602647,2.586826,6.426523,25.508274,6.794261,-0.048233,-0.017692,0.000000,-0.078023,0.137100,0.000000
1.070000,-2.343743,-1.722873,-1.463761,0.459542,0.919720,0.018020,0.151910,-0.454480,0.520776,-1.257111,-0.346586,2.649580,7.112476,25.693829,5.741478,-0.048880,-0.016352,0.000000,-0.051241,0.130475,-0.000000
1.080000,-2.339140,-1.713698,-1.463554,0.460999,0.915162,0.023361,0.139706,-0.456659,0.547540,-1.182537,-0.088976,2.701361,7.802812,25.817621,4.600408,-0.049257,-0.015082,0.000000,-0.024015,0.123093,0.000000
1.090000,-2.334523,-1.704569,-1.463293,0.462338,0.910595,0.028972,0.128283,-0.456257,0.574764,-1.101050,0.169549,2.741307,8.494470,25.876104,3.375018,-0.049359,-0.013890,0.000000,0.003606,0.114937,-0.000000
1.100000,-2.329893,-1.695486,-1.462974,0.463567,0.906046,0.034857,0.117708,-0.453267,0.602324,-1.012653,0.428317,2.768594,9.184388,25.865735,2.069276,-0.049183,-0.012783,0.000000,0.031570,0.105990,-0.000000
1.110000,-2.325252,-1.686448,-1.462595,0.464696,0.901539,0.041019,0.108048,-0.447690,0.630102,-0.917788,0.686837,2.783484,9.879857,25.777537,0.660732,-0.048726,-0.011770,0.000000,0.059831,0.096281,0.000000
1.120000,-2.320600,-1.677455,-1.462153,0.465732,0.897100,0.047459,0.099376,-0.439535,0.657945,-0.815549,0.943859,2.782757,10.566196,25.614061,-0.816996,-0.047986,-0.010858,0.000000,0.088275,0.085701,-0.000000
1.130000,-2.315938,-1.668506,-1.461645,0.466687,0.892756,0.054178,0.091760,-0.428819,0.685707,-0.706509,1.198858,2.766937,11.239078,25.372429,-2.356705,-0.046961,-0.010056,0.000000,0.116841,0.074292,-0.000000
1.140000,-2.311266,-1.659600,-1.461068,0.467571,0.888532,0.061173,0.085268,-0.415567,0.713232,-0.590826,1.451038,2.735440,11.894173,25.049759,-3.951193,-0.045649,-0.009373,0.000000,0.145438,0.062060,0.000000
1.150000,-2.306586,-1.650735,-1.460420,0.468396,0.884453,0.068441,0.079965,-0.399810,0.740362,-0.468699,1.699573,2.687755,12.527152,24.643173,-5.593260,-0.044052,-0.008817,0.000000,0.173964,0.049014,-0.000000
1.160000,-2.301898,-1.641910,-1.459699,0.469174,0.880544,0.075978,0.075911,-0.381583,0.766941,-0.340628,1.944283,2.624307,13.140180,24.132831,-7.297590,-0.042170,-0.008394,0.000000,0.202377,0.035198,-0.000000
1.170000,-2.297203,-1.633123,-1.458900,0.469919,0.876830,0.083777,0.073172,-0.360943,0.792790,-0.206291,2.182695,2.542678,13.721640,23.534889,-9.032413,-0.040006,-0.008115,0.000000,0.230388,0.020571,0.000000
1.180000,-2.292500,-1.624373,-1.458022,0.470642,0.873333,0.091831,0.071804,-0.337951,0.817736,-0.066318,2.414686,2.443590,14.266408,22.848545,-10.787849,-0.037564,-0.007985,0.000000,0.257942,0.005201,-0.000000
1.190000,-2.287790,-1.615656,-1.457063,0.471359,0.870078,0.100128,0.071863,-0.312674,0.841603,0.078898,2.639369,2.326886,14.769361,22.072996,-12.554015,-0.034849,-0.008013,0.000000,0.284899,-0.010869,-0.000000
1.200000,-2.283073,-1.606970,-1.456019,0.472085,0.867087,0.108659,0.073398,-0.285191,0.864215,0.228913,2.855846,2.192507,15.225376,21.207437,-14.321028,-0.031868,-0.008205,0.000000,0.311106,-0.027584,0.000000
1.210000,-2.278348,-1.598313,-1.454889,0.472833,0.864381,0.117408,0.076456,-0.255576,0.885400,0.383279,3.064260,2.040972,15.628130,20.224652,-16.091044,-0.028628,-0.008567,0.000000,0.336524,-0.044884,0.000000
1.220000,-2.273616,-1.589682,-1.453670,0.473619,0.861982,0.126361,0.081076,-0.223940,0.904976,0.541339,3.261224,1.871291,15.973845,19.153487,-17.840671,-0.025141,-0.009104,0.000000,0.360710,-0.062678,-0.000000
1.230000,-2.268876,-1.581073,-1.452361,0.474459,0.859909,0.135501,0.087294,-0.190389,0.922768,0.702550,3.447044,1.684264,16.257544,17.996373,-19.558551,-0.021418,-0.009822,0.000000,0.383627,-0.080887,0.000000
1.240000,-2.264127,-1.572482,-1.450959,0.475370,0.858180,0.144810,0.095136,-0.155039,0.938605,0.866266,3.620873,1.480264,16.474250,16.755742,-21.233330,-0.017473,-0.010723,0.000000,0.405107,-0.099410,-0.000000
1.250000,-2.259368,-1.563908,-1.449464,0.476368,0.856813,0.154266,0.104625,-0.118014,0.952318,1.031795,3.781888,1.259779,16.618986,15.434024,-22.853651,-0.013322,-0.011811,0.000000,0.424980,-0.118139,-0.000000
1.260000,-2.254599,-1.555345,-1.447874,0.477468,0.855825,0.163849,0.115779,-0.079432,0.963746,1.198737,3.930596,1.023257,16.678007,14.000694,-24.404284,-0.008978,-0.013087,0.000000,0.443227,-0.136993,0.000000
1.270000,-2.249818,-1.546790,-1.446187,0.478689,0.855229,0.173533,0.128600,-0.039451,0.972733,1.365477,4.063133,0.771776,16.656178,12.495177,-25.878222,-0.004464,-0.014551,0.000000,0.459335,-0.155750,-0.000000
1.280000,-2.245025,-1.538239,-1.444403,0.480046,0.855040,0.183295,0.143086,0.001779,0.979133,1.531578,4.180281,0.505984,16.549597,10.923939,-27.264584,0.000201,-0.016202,0.000000,0.473320,-0.174317,-0.000000
1.290000,-2.240217,-1.529688,-1.442521,0.481556,0.855268,0.193107,0.159227,0.044101,0.982808,1.696173,4.281414,0.226812,16.354360,9.293449,-28.552489,0.004995,-0.018036,0.000000,0.485046,-0.192552,-0.000000
1.300000,-2.235393,-1.521132,-1.440541,0.483236,0.855925,0.202941,0.177002,0.087352,0.983628,1.858356,4.365974,-0.064701,16.066563,7.610172,-29.731056,0.009894,-0.020051,0.000000,0.494389,-0.210304,-0.000000
1.310000,-2.230552,-1.512568,-1.438462,0.485101,0.857018,0.212770,0.196402,0.131370,0.981466,2.018949,4.434078,-0.368351,15.637693,5.865046,-30.765578,0.014875,-0.022243,0.000000,0.501313,-0.227619,0.000000
1.320000,-2.225690,-1.503990,-1.436285,0.487168,0.858554,0.222561,0.217365,0.175975,0.976229,2.172786,4.483841,-0.680649,15.113920,4.081969,-31.671917,0.019912,-0.024601,0.000000,0.505571,-0.243872,0.000000
1.330000,-2.220808,-1.495395,-1.434011,0.489453,0.860539,0.232284,0.239839,0.220987,0.967826,2.320916,4.515619,-1.001336,14.496803,2.269312,-32.442108,0.024978,-0.027118,0.000000,0.507182,-0.259139,0.000000
1.340000,-2.215901,-1.486778,-1.431640,0.491970,0.862974,0.241906,0.263761,0.266226,0.956179,2.462416,4.529157,-1.329011,13.787903,0.435443,-33.068186,0.030047,-0.029782,0.000000,0.506108,-0.273281,-0.000000
1.350000,-2.210967,-1.478134,-1.429173,0.494733,0.865863,0.251396,0.289062,0.311509,0.941227,2.596374,4.524285,-1.662192,12.988779,-1.411268,-33.542188,0.035091,-0.032582,0.000000,0.502340,-0.286165,-0.000000
1.360000,-2.206005,-1.469459,-1.426613,0.497755,0.869204,0.260720,0.315682,0.356652,0.922904,2.723838,4.501066,-2.000988,12.051941,-3.266222,-33.814039,0.040085,-0.035506,0.000000,0.495900,-0.297880,-0.000000
1.370000,-2.201011,-1.460749,-1.423960,0.501050,0.872995,0.269844,0.343506,0.401469,0.901201,2.839332,4.459143,-2.339810,11.034003,-5.116820,-33.923041,0.045000,-0.038539,0.000000,0.486812,-0.307814,0.000000
1.380000,-2.195983,-1.451998,-1.421216,0.504629,0.877232,0.278733,0.372433,0.445773,0.876107,2.944273,4.398773,-2.678897,9.942532,-6.954230,-33.866387,0.049812,-0.041664,0.000000,0.475154,-0.316119,0.000000
1.390000,-2.190918,-1.443203,-1.418386,0.508502,0.881908,0.287354,0.402354,0.489383,0.847628,3.037963,4.320132,-3.016577,8.785092,-8.769623,-33.641270,0.054495,-0.044864,0.000000,0.461021,-0.322727,-0.000000
1.400000,-2.185812,-1.434358,-1.415470,0.512679,0.887017,0.295674,0.433153,0.532116,0.815786,3.119780,4.223484,-3.351151,7.569249,-10.554168,-33.244881,0.059025,-0.048122,0.000000,0.444530,-0.327589,-0.000000
1.410000,-2.180663,-1.425461,-1.412473,0.517167,0.892547,0.303660,0.464716,0.573792,0.780599,3.189920,4.109034,-3.682864,6.283818,-12.295327,-32.624650,0.063378,-0.051422,0.000000,0.425789,-0.330746,0.000000
1.420000,-2.175468,-1.416506,-1.409398,0.521975,0.898488,0.311276,0.496908,0.614239,0.742152,3.246157,3.977572,-4.005297,4.957411,-13.988431,-31.833626,0.067534,-0.054744,0.000000,0.405027,-0.332023,0.000000
1.430000,-2.170223,-1.407490,-1.406249,0.527107,0.904827,0.318492,0.529595,0.653288,0.700523,3.288965,3.829454,-4.318978,3.599888,-15.625104,-30.875095,0.071472,-0.058071,0.000000,0.382385,-0.331513,0.000000
1.440000,-2.164924,-1.398408,-1.403030,0.532568,0.911549,0.325276,0.562641,0.690775,0.655807,3.318083,3.665286,-4.622251,2.221112,-17.196969,-29.752344,0.075176,-0.061385,0.000000,0.358050,-0.329252,-0.000000
1.450000,-2.159570,-1.389258,-1.399745,0.538361,0.918637,0.331598,0.595910,0.726543,0.608118,3.333349,3.485758,-4.913489,0.830943,-18.695651,-28.468657,0.078628,-0.064669,0.000000,0.332218,-0.325290,-0.000000
1.460000,-2.154156,-1.380034,-1.396400,0.544486,0.926074,0.337430,0.629258,0.760433,0.557562,3.334388,3.290852,-5.192961,-0.552935,-20.092750,-26.980277,0.081815,-0.067905,0.000000,0.304993,-0.319652,-0.000000
1.470000,-2.148679,-1.370735,-1.392998,0.550946,0.933839,0.342741,0.662552,0.792315,0.504311,3.321966,3.083301,-5.454699,-1.929441,-21.402365,-25.343294,0.084725,-0.071079,0.000000,0.276823,-0.312533,0.000000
1.480000,-2.143136,-1.361356,-1.389547,0.557737,0.941913,0.347507,0.695652,0.822057,0.448525,3.295853,2.863116,-5.699362,-3.289671,-22.618570,-23.566754,0.087348,-0.074174,0.000000,0.247799,-0.303977,0.000000
1.490000,-2.137523,-1.351896,-1.386050,0.564858,0.950273,0.351704,0.728424,0.849538,0.390385,3.256256,2.631261,-5.925599,-4.624723,-23.735442,-21.659705,0.089679,-0.077177,0.000000,0.218124,-0.294090,-0.000000
1.500000,-2.131838,-1.342350,-1.382515,0.572304,0.958896,0.355308,0.760733,0.874647,0.330079,3.203472,2.388758,-6.132151,-5.925692,-24.747055,-19.631192,0.091709,-0.080075,0.000000,0.187996,-0.282989,0.000000
1.510000,-2.126076,-1.332717,-1.378946,0.580071,0.967758,0.358299,0.792437,0.897268,0.267797,3.136604,2.135475,-6.319189,-7.151297,-25.616805,-17.456410,0.093436,-0.082855,0.000000,0.157469,-0.270652,-0.000000
1.520000,-2.120235,-1.322994,-1.375351,0.588151,0.976833,0.360658,0.823425,0.917329,0.203769,3.059160,1.875430,-6.482460,-8.328978,-26.373205,-15.182402,0.094859,-0.085509,0.000000,0.127052,-0.257548,0.000000
1.530000,-2.114312,-1.313180,-1.371735,0.596536,0.986096,0.362370,0.853581,0.934753,0.138225,2.970200,1.608396,-6.622550,-9.453795,-27.014086,-12.822360,0.095978,-0.088027,0.000000,0.096756,-0.243636,-0.000000
1.540000,-2.108304,-1.303272,-1.368105,0.605219,0.995519,0.363419,0.882793,0.949478,0.071398,2.870277,1.335541,-6.738664,-10.520811,-27.537280,-10.389477,0.096795,-0.090402,0.000000,0.066737,-0.229039,0.000000
1.550000,-2.102207,-1.293269,-1.364469,0.614189,1.005076,0.363794,0.910952,0.961449,0.003534,2.759993,1.058050,-6.830141,-11.525086,-27.940620,-7.896942,0.097314,-0.092627,0.000000,0.037135,-0.213876,0.000000
1.560000,-2.096019,-1.283170,-1.360832,0.623435,1.014739,0.363487,0.937947,0.970610,-0.065125,2.638741,0.775566,-6.896846,-12.429844,-28.182320,-5.347897,0.097538,-0.094697,0.000000,0.007922,-0.198134,-0.000000
1.570000,-2.089737,-1.272974,-1.357201,0.632944,1.024479,0.362490,0.963698,0.976954,-0.134318,2.510204,0.493033,-6.937440,-13.265883,-28.304681,-2.766816,0.097474,-0.096608,0.000000,-0.020409,-0.182230,-0.000000
1.580000,-2.083359,-1.262680,-1.353584,0.642704,1.034269,0.360800,0.988124,0.980469,-0.203787,2.373655,0.209862,-6.952124,-14.032162,-28.310386,-0.168120,0.097132,-0.098358,0.000000,-0.047941,-0.166120,-0.000000
1.590000,-2.076882,-1.252288,-1.349988,0.652702,1.044079,0.358414,1.011147,0.981153,-0.273273,2.229797,-0.072795,-6.940792,-14.727641,-28.202119,2.433767,0.096519,-0.099946,0.000000,-0.074592,-0.149896,0.000000
1.600000,-2.070305,-1.241799,-1.346418,0.662922,1.053882,0.355335,1.032698,0.979018,-0.342516,2.079342,-0.353810,-6.903486,-15.351281,-27.982562,5.024423,0.095643,-0.101370,0.000000,-0.100292,-0.133642,0.000000
1.610000,-2.063623,-1.231211,-1.342883,0.673351,1.063651,0.351565,1.052703,0.974073,-0.411251,1.921948,-0.633303,-6.839825,-15.875122,-27.623596,7.575165,0.094515,-0.102630,0.000000,-0.125096,-0.117339,0.000000
1.620000,-2.056837,-1.220526,-1.339389,0.683971,1.073355,0.347112,1.071121,0.966366,-0.479229,1.760873,-0.907316,-6.751474,-16.328339,-27.162480,10.087577,0.093145,-0.103728,0.000000,-0.148695,-0.101286,-0.000000
1.630000,-2.049943,-1.209744,-1.335943,0.694768,1.082969,0.341984,1.087906,0.955943,-0.546198,1.595610,-1.176234,-6.638243,-16.713189,-26.605667,12.548984,0.091545,-0.104665,0.000000,-0.171185,-0.085431,-0.000000
1.640000,-2.042941,-1.198867,-1.332552,0.705724,1.092465,0.336192,1.103021,0.942861,-0.611912,1.426830,-1.439132,-6.500706,-17.031927,-25.959613,14.946709,0.089725,-0.105444,0.000000,-0.192546,-0.069823,0.000000
1.650000,-2.035828,-1.187895,-1.329222,0.716823,1.101818,0.329751,1.116433,0.927184,-0.676133,1.255184,-1.695150,-6.339564,-17.286811,-25.230774,17.268075,0.087698,-0.106068,0.000000,-0.212771,-0.054502,0.000000
1.660000,-2.028604,-1.176831,-1.325959,0.728047,1.111001,0.322675,1.128111,0.908978,-0.738614,1.080703,-1.944030,-6.154368,-17.465051,-24.412044,19.468247,0.085473,-0.106539,0.000000,-0.231897,-0.039458,-0.000000
1.670000,-2.021267,-1.165676,-1.322770,0.739379,1.119989,0.314985,1.138042,0.888332,-0.799149,0.905403,-2.183769,-5.949089,-17.585791,-23.525099,21.570646,0.083063,-0.106861,0.000000,-0.249840,-0.024818,0.000000
1.680000,-2.013816,-1.154432,-1.319661,0.750802,1.128759,0.306699,1.146216,0.865333,-0.857527,0.729166,-2.414332,-5.723310,-17.653129,-22.578053,23.566534,0.080480,-0.107038,0.000000,-0.266659,-0.010549,-0.000000
1.690000,-2.006251,-1.143101,-1.316638,0.762298,1.137288,0.297842,1.152624,0.840077,-0.913550,0.552505,-2.635157,-5.478142,-17.671163,-21.579022,25.447173,0.077734,-0.107074,0.000000,-0.282378,0.003338,-0.000000
1.700000,-1.998570,-1.131687,-1.313706,0.773849,1.145554,0.288437,1.157266,0.812664,-0.967030,0.375893,-2.845766,-5.214780,-17.643991,-20.536121,27.203826,0.074836,-0.106973,0.000000,-0.297023,0.016839,-0.000000
1.710000,-1.990774,-1.120191,-1.310871,0.785437,1.153535,0.278510,1.160143,0.783200,-1.017772,0.199691,-3.045548,-4.932914,-17.573914,-19.462825,28.787502,0.071797,-0.106738,0.000000,-0.310599,0.029949,-0.000000
1.720000,-1.982861,-1.108617,-1.308138,0.797046,1.161211,0.268090,1.161263,0.751789,-1.065637,0.024457,-3.234689,-4.637688,-17.467049,-18.361234,30.234644,0.068627,-0.106373,0.000000,-0.323214,0.042695,-0.000000
1.730000,-1.974833,-1.096968,-1.305511,0.808657,1.168564,0.257207,1.160636,0.718543,-1.110480,-0.149542,-3.412703,-4.328689,-17.327712,-17.238805,31.541442,0.065336,-0.105883,0.000000,-0.334872,0.055080,-0.000000
1.740000,-1.966688,-1.085247,-1.302995,0.820253,1.175576,0.245891,1.158277,0.683573,-1.152170,-0.322003,-3.579420,-4.007340,-17.160223,-16.102998,32.704086,0.061933,-0.105271,0.000000,-0.345617,0.067120,0.000000
1.750000,-1.958428,-1.073458,-1.300594,0.831816,1.182230,0.234175,1.154202,0.646993,-1.190591,-0.492667,-3.734743,-3.675101,-16.968900,-14.961273,33.718769,0.058427,-0.104539,0.000000,-0.355491,0.078834,-0.000000
1.760000,-1.950052,-1.061604,-1.298313,0.843331,1.188511,0.222090,1.148434,0.608927,-1.225624,-0.661030,-3.877702,-3.331903,-16.765282,-13.845064,34.542082,0.054827,-0.103693,0.000000,-0.364449,0.090205,0.000000
1.770000,-1.941561,-1.049689,-1.296154,0.854779,1.194404,0.209673,1.140989,0.569476,-1.257204,-0.827597,-4.010595,-2.982994,-16.545583,-12.734918,35.214662,0.051140,-0.102733,0.000000,-0.372759,0.101356,0.000000
1.780000,-1.932957,-1.037717,-1.294120,0.866145,1.199896,0.196958,1.131889,0.528751,-1.285264,-0.991900,-4.132435,-2.628109,-16.313236,-11.635357,35.737549,0.047374,-0.101664,0.000000,-0.380359,0.112267,-0.000000
1.790000,-1.924239,-1.025692,-1.292215,0.877412,1.204975,0.183980,1.121159,0.486864,-1.309751,-1.153831,-4.243352,-2.268739,-16.071676,-10.550905,36.111782,0.043535,-0.100486,0.000000,-0.387292,0.122967,0.000000
1.800000,-1.915409,-1.013619,-1.290441,0.888563,1.209630,0.170775,1.108821,0.443920,-1.330628,-1.313314,-4.343519,-1.906365,-15.824337,-9.486085,36.338400,0.039630,-0.099203,0.000000,-0.393603,0.133488,-0.000000
1.810000,-1.906468,-1.001501,-1.288801,0.899583,1.213850,0.157379,1.094907,0.400033,-1.347860,-1.469693,-4.432688,-1.541257,-15.590236,-8.457194,36.388086,0.035666,-0.097816,0.000000,-0.399288,0.143796,0.000000
1.820000,-1.897418,-0.989344,-1.287294,0.910456,1.217628,0.143830,1.079435,0.355300,-1.361454,-1.624421,-4.512228,-1.177721,-15.355317,-7.455538,36.295953,0.031646,-0.096325,0.000000,-0.404495,0.154078,-0.000000
1.830000,-1.888259,-0.977150,-1.285924,0.921166,1.220954,0.130162,1.062427,0.309822,-1.371420,-1.776801,-4.581900,-0.815795,-15.121104,-6.484200,36.066757,0.027577,-0.094733,0.000000,-0.409211,0.164293,0.000000
1.840000,-1.878995,-0.964926,-1.284691,0.931699,1.223822,0.116413,1.043906,0.263694,-1.377780,-1.926850,-4.642023,-0.456827,-14.889126,-5.546259,35.705255,0.023464,-0.093038,0.000000,-0.413473,0.174471,-0.000000
1.850000,-1.869626,-0.952675,-1.283596,0.942039,1.226226,0.102618,1.023897,0.217012,-1.380571,-2.074596,-4.692947,-0.102115,-14.660908,-4.644797,35.216202,0.019309,-0.091242,0.000000,-0.417316,0.184642,-0.000000
1.860000,-1.860155,-0.940403,-1.282639,0.952172,1.228160,0.088813,1.002429,0.169883,-1.379831,-2.219441,-4.733354,0.247955,-14.454254,-3.825752,34.582449,0.015120,-0.089345,0.000000,-0.420623,0.194774,0.000000
1.870000,-1.850583,-0.928114,-1.281820,0.962083,1.229622,0.075033,0.979515,0.122371,-1.375635,-2.362971,-4.767673,0.590127,-14.252419,-3.044100,33.833341,0.010898,-0.087346,0.000000,-0.423786,0.205046,0.000000
1.880000,-1.840914,-0.915812,-1.281138,0.971758,1.230606,0.061312,0.955176,0.074555,-1.368055,-2.504504,-4.794354,0.924262,-14.054936,-2.297676,32.976316,0.006645,-0.085244,0.000000,-0.426660,0.215412,-0.000000
1.890000,-1.831149,-0.903503,-1.280593,0.981182,1.231112,0.047683,0.929432,0.026509,-1.357180,-2.644083,-4.813737,1.249319,-13.861337,-1.584312,32.018815,0.002366,-0.083037,0.000000,-0.429264,0.225896,0.000000
1.900000,-1.821291,-0.891192,-1.280184,0.990342,1.231136,0.034179,0.902301,-0.021696,-1.343103,-2.781742,-4.826143,1.564329,-13.671156,-0.901842,30.968274,-0.001939,-0.080726,0.000000,-0.431616,0.236519,-0.000000
1.910000,-1.811343,-0.878882,-1.279909,0.999223,1.230678,0.020831,0.873813,-0.069992,-1.325927,-2.916606,-4.831839,1.868623,-13.506900,-0.248859,29.826481,-0.006266,-0.078307,0.000000,-0.433723,0.247216,0.000000
1.920000,-1.801308,-0.866580,-1.279767,1.007813,1.229736,0.007670,0.843974,-0.118312,-1.305770,-3.050854,-4.831174,2.160852,-13.342315,0.377655,28.607220,-0.010613,-0.075780,0.000000,-0.435598,0.258199,-0.000000
1.930000,-1.791188,-0.854289,-1.279755,1.016098,1.228312,-0.005275,0.812802,-0.166595,-1.282752,-3.183440,-4.824367,2.440536,-13.174118,0.979961,27.318620,-0.014977,-0.073142,0.000000,-0.437242,0.269386,-0.000000
1.940000,-1.780987,-0.842015,-1.279872,1.024065,1.226405,-0.017976,0.780311,-0.214780,-1.257003,-3.314313,-4.811648,2.707021,-12.999030,1.560318,25.968814,-0.019357,-0.070391,0.000000,-0.438652,0.280782,-0.000000
1.950000,-1.770708,-0.829762,-1.280114,1.031700,1.224017,-0.030406,0.746521,-0.262809,-1.228657,-3.443387,-4.793226,2.959735,-12.813771,2.120987,24.565933,-0.023749,-0.067525,0.000000,-0.439823,0.292386,0.000000
1.960000,-1.760354,-0.817536,-1.280479,1.038991,1.221149,-0.042541,0.711453,-0.310630,-1.197856,-3.570236,-4.769696,3.198167,-12.622829,2.674558,23.118691,-0.028153,-0.064542,0.000000,-0.440783,0.304166,0.000000
1.970000,-1.749929,-0.805341,-1.280963,1.045925,1.217805,-0.054355,0.675123,-0.358184,-1.164743,-3.695438,-4.740251,3.421960,-12.414204,3.211694,21.634563,-0.032564,-0.061439,0.000000,-0.441431,0.316176,0.000000
1.980000,-1.739437,-0.793182,-1.281565,1.052489,1.213987,-0.065828,0.637552,-0.405417,-1.129467,-3.818447,-4.705513,3.630762,-12.183662,3.733390,20.121611,-0.036980,-0.058214,0.000000,-0.441795,0.328369,0.000000
1.990000,-1.728881,-0.781063,-1.282279,1.058672,1.209698,-0.076938,0.598762,-0.452277,-1.092178,-3.939024,-4.665631,3.824323,-11.926971,4.240641,18.587893,-0.041399,-0.054866,0.000000,-0.441858,0.340720,-0.000000
2.000000,-1.718265,-0.768989,-1.283102,1.064460,1.204943,-0.087666,0.558780,-0.498713,-1.053032,-4.056885,-4.620745,4.002477,-11.639901,4.734441,17.041470,-0.045817,-0.051393,0.000000,-0.441601,0.353199,-0.000000
2.010000,-1.707593,-0.756966,-1.284031,1.069844,1.199725,-0.097993,0.517629,-0.544671,-1.012182,-4.172226,-4.570493,4.165023,-11.305096,5.203380,15.493286,-0.050229,-0.047794,0.000000,-0.440958,0.365817,0.000000
2.020000,-1.696869,-0.744996,-1.285061,1.074809,1.194051,-0.107904,0.475348,-0.590108,-0.969783,-4.283449,-4.516157,4.312224,-10.933055,5.662376,13.948163,-0.054635,-0.044068,0.000000,-0.440015,0.378417,-0.000000
2.030000,-1.686098,-0.733086,-1.286187,1.079347,1.187925,-0.117384,0.431973,-0.634979,-0.925989,-4.390754,-4.457270,4.444022,-10.521150,6.113943,12.413806,-0.059028,-0.040214,0.000000,-0.438697,0.391004,0.000000
2.040000,-1.675284,-0.721239,-1.287407,1.083445,1.181353,-0.126420,0.387547,-0.679238,-0.880953,-4.493730,-4.393894,4.560562,-10.066757,6.560595,10.897922,-0.063407,-0.036234,0.000000,-0.436976,0.403523,-0.000000
2.050000,-1.664431,-0.709460,-1.288714,1.087094,1.174342,-0.134999,0.342115,-0.722842,-0.834828,-4.591939,-4.326066,4.662068,-9.567250,7.004846,9.408218,-0.067766,-0.032128,0.000000,-0.434822,0.415914,-0.000000
2.060000,-1.653543,-0.697754,-1.290105,1.090285,1.166899,-0.143113,0.295720,-0.765757,-0.787768,-4.685417,-4.254898,4.748171,-9.007352,7.477018,7.969276,-0.072103,-0.027897,0.000000,-0.432304,0.428162,0.000000
2.070000,-1.642626,-0.686124,-1.291575,1.093006,1.159030,-0.150752,0.248426,-0.807924,-0.739911,-4.772488,-4.177770,4.820832,-8.398638,7.948411,6.569859,-0.076411,-0.023543,0.000000,-0.429155,0.440080,0.000000
2.080000,-1.631685,-0.674575,-1.293119,1.095250,1.150743,-0.157909,0.200292,-0.849296,-0.691397,-4.853223,-4.095935,4.879719,-7.740034,8.418134,5.215607,-0.080684,-0.019071,0.000000,-0.425457,0.451649,-0.000000
2.090000,-1.620723,-0.663110,-1.294732,1.097009,1.142047,-0.164578,0.151384,-0.889827,-0.642361,-4.927119,-4.009416,4.925313,-7.030464,8.885293,3.912161,-0.084918,-0.014482,0.000000,-0.421181,0.462792,0.000000
2.100000,-1.609746,-0.651735,-1.296409,1.098276,1.132950,-0.170755,0.101774,-0.929469,-0.592934,-4.993659,-3.918241,4.958150,-6.268851,9.348999,2.665161,-0.089106,-0.009783,0.000000,-0.416304,0.473430,-0.000000
2.110000,-1.598759,-0.640453,-1.298145,1.099043,1.123461,-0.176436,0.051530,-0.968180,-0.543249,-5.052990,-3.822802,4.977860,-5.437163,9.817249,1.504569,-0.093242,-0.004977,0.000000,-0.410827,0.483544,-0.000000
2.120000,-1.587767,-0.629267,-1.299936,1.099305,1.113589,-0.181619,0.000743,-1.005910,-0.493414,-5.102986,-3.722314,4.987372,-4.553356,10.279173,0.408723,-0.097320,-0.000072,0.000000,-0.404674,0.492893,0.000000
2.130000,-1.576775,-0.618182,-1.301776,1.099056,1.103346,-0.186304,-0.050500,-1.042611,-0.443537,-5.143887,-3.617247,4.986259,-3.618433,10.732791,-0.619714,-0.101334,0.004925,0.000000,-0.397858,0.501467,0.000000
2.140000,-1.565788,-0.607201,-1.303660,1.098293,1.092741,-0.190490,-0.102103,-1.078240,-0.393722,-5.175187,-3.507693,4.975211,-2.633392,11.176123,-1.578081,-0.105275,0.010006,0.000000,-0.390370,0.509179,-0.000000
2.150000,-1.554811,-0.596329,-1.305584,1.097013,1.081785,-0.194179,-0.153970,-1.112751,-0.344064,-5.196391,-3.393765,4.954940,-1.599234,11.607190,-2.463716,-0.109139,0.015162,0.000000,-0.382207,0.515947,0.000000
2.160000,-1.543849,-0.585567,-1.307542,1.095214,1.070490,-0.197372,-0.206002,-1.146104,-0.294665,-5.207567,-3.275841,4.924988,-0.502924,12.030183,-3.243648,-0.112917,0.020384,0.000000,-0.373379,0.521737,0.000000
2.170000,-1.532908,-0.574920,-1.309530,1.092893,1.058867,-0.200073,-0.258084,-1.178254,-0.245589,-5.206925,-3.153493,4.888962,0.638783,12.436195,-3.949236,-0.116604,0.025660,0.000000,-0.363868,0.526345,-0.000000
2.180000,-1.521993,-0.564391,-1.311542,1.090052,1.046929,-0.202285,-0.310101,-1.209160,-0.196908,-5.194649,-3.027183,4.846247,1.823168,12.822488,-4.581531,-0.120192,0.030979,0.000000,-0.353698,0.529752,-0.000000
2.190000,-1.511109,-0.553982,-1.313574,1.086692,1.034688,-0.204012,-0.361937,-1.238785,-0.148684,-5.170328,-2.897119,4.797572,3.047514,13.186326,-5.141582,-0.123676,0.036328,0.000000,-0.342888,0.531885,-0.000000
2.200000,-1.500261,-0.543698,-1.315620,1.082814,1.022157,-0.205260,-0.413467,-1.267091,-0.100974,-5.133575,-2.763540,4.743653,4.309099,13.524973,-5.630439,-0.127048,0.041694,0.000000,-0.331462,0.532673,0.000000
2.210000,-1.489454,-0.533540,-1.317677,1.078424,1.009351,-0.206033,-0.464570,-1.294043,-0.053838,-5.084451,-2.626594,4.684044,5.615816,13.832701,-6.020022,-0.130303,0.047064,0.000000,-0.319422,0.532090,0.000000
2.220000,-1.478694,-0.523512,-1.319740,1.073525,0.996281,-0.206339,-0.515112,-1.319613,-0.007305,-5.021631,-2.486853,4.622171,6.953037,14.110131,-6.344077,-0.133435,0.052422,0.000000,-0.306869,0.529986,0.000000
2.230000,-1.467985,-0.513615,-1.321803,1.068124,0.982963,-0.206182,-0.564958,-1.343772,0.038595,-4.945302,-2.344500,4.557365,8.316743,14.354896,-6.607222,-0.136439,0.057753,0.000000,-0.293812,0.526352,0.000000
2.240000,-1.457333,-0.503853,-1.323862,1.062229,0.969410,-0.205569,-0.613972,-1.366495,0.083835,-4.855221,-2.199872,4.490214,9.702915,14.564625,-6.814073,-0.139309,0.063042,0.000000,-0.280296,0.521139,0.000000
2.250000,-1.446742,-0.494228,-1.325912,1.055848,0.955638,-0.204507,-0.662015,-1.387763,0.128394,-4.751182,-2.053332,4.421256,11.107536,14.736949,-6.969247,-0.142043,0.068272,0.000000,-0.266370,0.514308,-0.000000
2.260000,-1.436218,-0.484741,-1.327950,1.048992,0.941660,-0.203003,-0.708952,-1.407553,0.172247,-4.633330,-1.904881,4.350199,12.534380,14.859780,-7.057491,-0.144635,0.073428,0.000000,-0.252035,0.505847,0.000000
2.270000,-1.425764,-0.475395,-1.329971,1.041673,0.927492,-0.201064,-0.754634,-1.425857,0.215395,-4.500811,-1.755839,4.279353,13.970683,14.941656,-7.105725,-0.147083,0.078490,0.000000,-0.237467,0.495668,0.000000
2.280000,-1.415386,-0.466192,-1.331970,1.033904,0.913148,-0.198698,-0.798920,-1.442668,0.257833,-4.353902,-1.606188,4.208195,15.411470,14.981398,-7.120999,-0.149384,0.083443,0.000000,-0.222667,0.483778,0.000000
2.290000,-1.405088,-0.457133,-1.333944,1.025700,0.898643,-0.195910,-0.841664,-1.457980,0.299559,-4.192583,-1.456356,4.137019,16.851771,14.977828,-7.110361,-0.151536,0.088269,0.000000,-0.207692,0.470162,0.000000
2.300000,-1.394873,-0.448220,-1.335887,1.017077,0.883993,-0.192709,-0.882724,-1.471795,0.340574,-4.016885,-1.306780,4.066050,18.286612,14.929764,-7.080862,-0.153537,0.092950,0.000000,-0.192602,0.454809,0.000000
2.310000,-1.384747,-0.439453,-1.337796,1.008052,0.869212,-0.189101,-0.921957,-1.484113,0.380879,-3.827117,-1.157393,3.995243,19.716870,14.822897,-7.034552,-0.155387,0.097468,0.000000,-0.177399,0.437738,0.000000
2.320000,-1.374714,-0.430836,-1.339668,0.998644,0.854316,-0.185093,-0.959219,-1.494948,0.420481,-3.622862,-1.009887,3.925150,21.131007,14.670787,-6.984092,-0.157085,0.101805,0.000000,-0.162277,0.418899,0.000000
2.330000,-1.364776,-0.422367,-1.341497,0.988874,0.839318,-0.180694,-0.994367,-1.504316,0.459384,-3.404570,-0.864126,3.855550,22.523335,14.473861,-6.937144,-0.158633,0.105944,0.000000,-0.147229,0.398323,0.000000
2.340000,-1.354937,-0.414050,-1.343280,0.978764,0.824234,-0.175908,-1.027264,-1.512237,0.497593,-3.172487,-0.720557,3.786370,23.888166,14.232548,-6.901370,-0.160030,0.109867,0.000000,-0.132309,0.376023,-0.000000
2.350000,-1.345201,-0.405883,-1.345014,0.968337,0.809078,-0.170744,-1.057772,-1.518736,0.535112,-2.926917,-0.579622,3.717460,25.219811,13.947278,-6.884432,-0.161279,0.113556,0.000000,-0.117570,0.352018,0.000000
2.360000,-1.335571,-0.397868,-1.346694,0.957617,0.793864,-0.165208,-1.085760,-1.523834,0.571948,-2.668366,-0.441219,3.649066,26.516262,13.604887,-6.905952,-0.162382,0.116995,0.000000,-0.103014,0.326352,0.000000
2.370000,-1.326050,-0.390006,-1.348317,0.946631,0.778606,-0.159308,-1.111097,-1.527572,0.608092,-2.396906,-0.307056,3.579766,27.767699,13.221059,-6.960167,-0.163341,0.120165,0.000000,-0.088800,0.299001,-0.000000
2.380000,-1.316640,-0.382296,-1.349879,0.935405,0.763317,-0.153049,-1.133657,-1.529989,0.643540,-2.113183,-0.176929,3.509733,28.967985,12.797887,-7.053274,-0.164159,0.123050,0.000000,-0.074918,0.270022,-0.000000
2.390000,-1.307343,-0.374740,-1.351377,0.923967,0.748010,-0.146439,-1.153321,-1.531126,0.678283,-1.817737,-0.051222,3.438550,30.110979,12.337463,-7.191471,-0.164840,0.125633,0.000000,-0.061405,0.239453,0.000000
2.400000,-1.298161,-0.367336,-1.352807,0.912348,0.732699,-0.139486,-1.169975,-1.531029,0.712306,-1.511174,0.069703,3.365733,31.190542,11.841880,-7.380955,-0.165388,0.127899,0.000000,-0.048294,0.207337,0.000000
2.410000,-1.289096,-0.360086,-1.354165,0.900578,0.717394,-0.132196,-1.183510,-1.529744,0.745602,-1.194142,0.185962,3.291843,32.200125,11.301701,-7.655818,-0.165807,0.129832,0.000000,-0.035584,0.173738,0.000000
2.420000,-1.280150,-0.352988,-1.355449,0.888689,0.702107,-0.124576,-1.193825,-1.527329,0.778133,-0.867406,0.296153,3.213661,33.134050,10.731960,-7.990947,-0.166102,0.131417,0.000000,-0.023371,0.138678,0.000000
2.430000,-1.271323,-0.346043,-1.356656,0.876713,0.686851,-0.116636,-1.200828,-1.523840,0.809863,-0.531734,0.400514,3.131814,33.986227,10.136161,-8.389123,-0.166276,0.132640,0.000000,-0.011640,0.102233,0.000000
2.440000,-1.262616,-0.339251,-1.357781,0.864683,0.671634,-0.108382,-1.204433,-1.519339,0.840755,-0.187974,0.498801,3.045659,34.750568,9.517808,-8.853128,-0.166336,0.133486,0.000000,-0.000406,0.064475,0.000000
2.450000,-1.254029,-0.332610,-1.358822,0.852635,0.656467,-0.099824,-1.204564,-1.513885,0.870760,0.162964,0.590807,2.954523,35.420983,8.880405,-9.385742,-0.166286,0.133943,0.000000,0.010321,0.025481,-0.000000
2.460000,-1.245563,-0.326121,-1.359777,0.840604,0.641359,-0.090970,-1.201150,-1.507541,0.899843,0.520428,0.676633,2.859258,35.983415,8.220495,-10.028930,-0.166131,0.133999,0.000000,0.020538,-0.014674,0.000000
2.470000,-1.237217,-0.319783,-1.360641,0.828624,0.626319,-0.081831,-1.194138,-1.500375,0.927923,0.882638,0.755490,2.755463,36.440720,7.549397,-10.741494,-0.165877,0.133642,0.000000,0.030240,-0.055864,0.000000
2.480000,-1.228990,-0.313595,-1.361412,0.816733,0.611354,-0.072415,-1.183484,-1.492454,0.954927,1.248875,0.827598,2.644203,36.787784,6.871467,-11.521415,-0.165528,0.132863,0.000000,0.039433,-0.097993,-0.000000
2.490000,-1.220882,-0.307556,-1.362088,0.804967,0.596472,-0.062736,-1.169151,-1.483845,0.980780,1.618009,0.892911,2.524816,37.019495,6.191061,-12.366679,-0.165090,0.131652,0.000000,0.048125,-0.140942,-0.000000
2.500000,-1.212890,-0.301665,-1.362666,0.793363,0.581679,-0.052804,-1.151118,-1.474618,1.005394,1.988863,0.951426,2.396659,37.130739,5.512537,-13.275269,-0.164567,0.130003,0.000000,0.056327,-0.184575,-0.000000
2.510000,-1.205014,-0.295922,-1.363143,0.781957,0.566981,-0.042633,-1.129364,-1.464839,1.028699,2.360965,1.003191,2.260770,37.097219,4.840044,-14.287178,-0.163965,0.127908,0.000000,0.064025,-0.228805,-0.000000
2.520000,-1.197250,-0.290325,-1.363518,0.770787,0.552384,-0.032235,-1.103902,-1.454576,1.050575,2.731236,1.048271,2.112610,36.935356,4.178172,-15.353235,-0.163288,0.125364,0.000000,0.071311,-0.273326,-0.000000
2.530000,-1.189597,-0.284874,-1.363787,0.759891,0.537891,-0.021627,-1.074747,-1.443896,1.070915,3.099235,1.086804,1.953549,36.642385,3.531302,-16.466281,-0.162541,0.122367,0.000000,0.078172,-0.318027,-0.000000
2.540000,-1.182051,-0.279567,-1.363950,0.749305,0.523507,-0.010823,-1.041929,-1.432862,1.089608,3.463637,1.118962,1.783152,36.215541,2.903816,-17.619155,-0.161726,0.118918,0.000000,0.084631,-0.362714,0.000000
2.550000,-1.174610,-0.274403,-1.364003,0.739065,0.509235,0.000160,-1.005491,-1.421537,1.106539,3.823090,1.144960,1.601057,35.652061,2.300096,-18.804696,-0.160849,0.115018,0.000000,0.090716,-0.407179,0.000000
2.560000,-1.167269,-0.269382,-1.363946,0.729206,0.495077,0.011302,-0.965475,-1.409985,1.121604,4.177471,1.164757,1.408291,34.917432,1.732122,-20.049029,-0.159914,0.110668,0.000000,0.096394,-0.451321,0.000000
2.570000,-1.160024,-0.264501,-1.363777,0.719766,0.481036,0.022585,-0.921968,-1.398260,1.134663,4.522396,1.179369,1.201514,34.044525,1.195748,-21.307634,-0.158922,0.105877,0.000000,0.101838,-0.494605,-0.000000
2.580000,-1.152872,-0.259761,-1.363494,0.710778,0.467113,0.033988,-0.875058,-1.386415,1.145592,4.857904,1.188789,0.982128,33.034465,0.694425,-22.569272,-0.157878,0.100653,0.000000,0.107009,-0.536918,-0.000000
2.590000,-1.145807,-0.255159,-1.363097,0.702276,0.453308,0.045489,-0.824846,-1.374501,1.154264,5.182631,1.193385,0.750156,31.888376,0.231604,-23.822709,-0.156783,0.095008,0.000000,0.111938,-0.578001,0.000000
2.600000,-1.138825,-0.250694,-1.362584,0.694292,0.439623,0.057065,-0.771446,-1.362562,1.160554,5.495222,1.193561,0.505738,30.607380,-0.189262,-25.056707,-0.155640,0.088955,0.000000,0.116652,-0.617582,-0.000000
2.610000,-1.131920,-0.246366,-1.361955,0.686857,0.426057,0.068692,-0.714969,-1.350649,1.164343,5.795956,1.189153,0.249609,29.151610,-0.549600,-26.272259,-0.154451,0.082509,0.000000,0.121103,-0.655567,0.000000
2.620000,-1.125086,-0.242173,-1.361210,0.680002,0.412610,0.080343,-0.655577,-1.338791,1.165506,6.079659,1.182050,-0.019016,27.568201,-0.862931,-27.444403,-0.153218,0.075693,0.000000,0.125504,-0.691249,0.000000
2.630000,-1.118317,-0.238113,-1.360348,0.673755,0.399281,0.091993,-0.593430,-1.327018,1.163925,6.346915,1.172056,-0.299092,25.863295,-1.127659,-28.560404,-0.151942,0.068528,0.000000,0.129791,-0.724557,0.000000
2.640000,-1.111609,-0.234187,-1.359370,0.668142,0.386069,0.103612,-0.528698,-1.315357,1.159488,6.596540,1.159664,-0.589995,24.043035,-1.342181,-29.607531,-0.150623,0.061042,0.000000,0.133987,-0.755227,-0.000000
2.650000,-1.104952,-0.230391,-1.358276,0.663189,0.372973,0.115172,-0.461562,-1.303831,1.152091,6.827412,1.145385,-0.890971,22.113565,-1.504900,-30.573048,-0.149262,0.053261,0.000000,0.138110,-0.783007,0.000000
2.660000,-1.098343,-0.226727,-1.357067,0.658917,0.359992,0.126644,-0.392198,-1.292463,1.141630,7.040095,1.128952,-1.201841,20.039932,-1.594194,-31.426553,-0.147862,0.045214,0.000000,0.142099,-0.807848,0.000000
2.670000,-1.091772,-0.223191,-1.355744,0.655351,0.347124,0.137995,-0.320831,-1.281254,1.128028,7.229739,1.112783,-1.519941,17.874406,-1.630937,-32.175145,-0.146420,0.036937,0.000000,0.146157,-0.829088,0.000000
2.680000,-1.085233,-0.219784,-1.354308,0.652507,0.334366,0.149194,-0.247677,-1.270208,1.111209,7.397314,1.096505,-1.844959,15.628163,-1.615979,-32.808255,-0.144938,0.028465,0.000000,0.150203,-0.846757,-0.000000
2.690000,-1.078719,-0.216504,-1.352761,0.650402,0.321719,0.160208,-0.172961,-1.259322,1.091110,7.542070,1.080633,-2.175686,13.312378,-1.550173,-33.315312,-0.143416,0.019835,0.000000,0.154244,-0.860706,-0.000000
2.700000,-1.072223,-0.213349,-1.351104,0.649052,0.309180,0.171005,-0.096914,-1.248592,1.067680,7.663367,1.065669,-2.510810,10.938225,-1.434371,-33.685747,-0.141854,0.011085,0.000000,0.158285,-0.870823,-0.000000
2.710000,-1.065736,-0.210320,-1.349341,0.648468,0.296747,0.181551,-0.019762,-1.238013,1.040863,7.761700,1.051332,-2.850754,8.491036,-1.249798,-33.862427,-0.140251,0.002254,0.000000,0.162269,-0.877146,0.000000
2.720000,-1.059251,-0.207414,-1.347474,0.648659,0.284419,0.191811,0.058238,-1.227558,1.010662,7.834232,1.039949,-3.189630,6.010994,-1.019334,-33.887047,-0.138608,-0.006618,0.000000,0.166333,-0.879367,-0.000000
2.730000,-1.052760,-0.204631,-1.345506,0.649634,0.272195,0.201753,0.136839,-1.217205,0.977073,7.881859,1.031087,-3.527972,3.512439,-0.746237,-33.754739,-0.136924,-0.015491,0.000000,0.170408,-0.877635,-0.000000
2.740000,-1.046255,-0.201970,-1.343440,0.651397,0.260075,0.211342,0.215792,-1.206927,0.940109,7.904467,1.025156,-3.864186,1.009710,-0.433760,-33.460633,-0.135200,-0.024324,0.000000,0.174488,-0.872007,-0.000000
2.750000,-1.039729,-0.199429,-1.341281,0.653950,0.248057,0.220544,0.294845,-1.196691,0.899801,7.902087,1.022533,-4.196629,-1.482852,-0.085159,-32.999863,-0.133435,-0.033079,0.000000,0.178568,-0.862584,0.000000
2.760000,-1.033174,-0.197008,-1.339031,0.657294,0.236141,0.229327,0.373749,-1.186469,0.856169,7.874710,1.023062,-4.526034,-3.946328,0.308955,-32.306358,-0.131629,-0.041718,0.000000,0.182618,-0.849474,-0.000000
2.770000,-1.026581,-0.194706,-1.336696,0.661424,0.224328,0.237657,0.452258,-1.176216,0.809307,7.823083,1.028241,-4.844925,-6.371520,0.731134,-31.443945,-0.129782,-0.050205,0.000000,0.186680,-0.832932,-0.000000
2.780000,-1.019943,-0.192521,-1.334279,0.666337,0.212617,0.245503,0.530131,-1.165890,0.759302,7.747453,1.037762,-5.154359,-8.744648,1.176576,-30.415251,-0.127895,-0.058507,0.000000,0.190722,-0.813140,0.000000
2.790000,-1.013251,-0.190453,-1.331787,0.672024,0.201010,0.252833,0.607129,-1.155446,0.706257,7.648410,1.051834,-5.452685,-11.051934,1.640477,-29.222902,-0.125968,-0.066591,0.000000,0.194738,-0.790340,-0.000000
2.800000,-1.006500,-0.188501,-1.329225,0.678476,0.189509,0.259618,0.683023,-1.144838,0.650290,7.526680,1.070617,-5.738280,-13.279599,2.118035,-27.869525,-0.124001,-0.074430,0.000000,0.198719,-0.764798,0.000000
2.810000,-0.999679,-0.186663,-1.326597,0.685680,0.178114,0.265830,0.757574,-1.134018,0.591515,7.381660,1.094178,-6.011739,-15.376754,2.605616,-26.302381,-0.121994,-0.081996,0.000000,0.202680,-0.736625,-0.000000
2.820000,-0.992783,-0.184938,-1.323910,0.693623,0.166829,0.271441,0.830588,-1.122938,0.530110,7.217830,1.122690,-6.266303,-17.371275,3.097103,-24.586239,-0.119947,-0.089266,0.000000,0.206562,-0.706540,-0.000000
2.830000,-0.985804,-0.183326,-1.321170,0.702286,0.155656,0.276424,0.901866,-1.111548,0.466248,7.034607,1.156116,-6.502999,-19.253926,3.587550,-22.730504,-0.117863,-0.096223,0.000000,0.210385,-0.674649,0.000000
2.840000,-0.978735,-0.181825,-1.318384,0.711653,0.144599,0.280758,0.971220,-1.099799,0.400115,6.833156,1.194421,-6.720479,-21.015472,4.072010,-20.744581,-0.115740,-0.102849,0.000000,0.214146,-0.641258,0.000000
2.850000,-0.971569,-0.180433,-1.315557,0.721704,0.133662,0.284420,1.038473,-1.087643,0.331907,6.614732,1.237520,-6.917488,-22.646680,4.545538,-18.637876,-0.113580,-0.109130,0.000000,0.217840,-0.606667,0.000000
2.860000,-0.964299,-0.179151,-1.312698,0.732416,0.122848,0.287390,1.103438,-1.075029,0.261822,6.378463,1.285689,-7.094192,-24.082129,4.992845,-16.386283,-0.111383,-0.115055,0.000000,0.221517,-0.570933,0.000000
2.870000,-0.956919,-0.177976,-1.309812,0.743765,0.112163,0.289651,1.165996,-1.061915,0.190100,6.131055,1.337774,-7.246383,-25.375649,5.420592,-14.036820,-0.109150,-0.120618,0.000000,0.225045,-0.534921,0.000000
2.880000,-0.949422,-0.176907,-1.306907,0.755727,0.101611,0.291188,1.226018,-1.048259,0.116975,5.871431,1.394023,-7.374647,-26.524886,5.825100,-11.602997,-0.106882,-0.125816,0.000000,0.228485,-0.498621,0.000000
2.890000,-0.941802,-0.175943,-1.303990,0.768277,0.091199,0.291987,1.283389,-1.034022,0.042689,5.601046,1.454186,-7.478207,-27.527484,6.202688,-9.098323,-0.104580,-0.130648,0.000000,0.231834,-0.462282,0.000000
2.900000,-0.934054,-0.175083,-1.301070,0.781386,0.080933,0.292038,1.338008,-1.019164,-0.032505,5.321378,1.517975,-7.556422,-28.381089,6.549676,-6.536305,-0.102246,-0.135114,0.000000,0.235093,-0.426132,-0.000000
2.910000,-0.926173,-0.174324,-1.298152,0.795028,0.070818,0.291335,1.389767,-1.003643,-0.108355,5.031713,1.585785,-7.608985,-29.027397,6.844204,-3.925455,-0.099878,-0.139214,0.000000,0.238328,-0.390165,-0.000000
2.920000,-0.918152,-0.173666,-1.295246,0.809172,0.060862,0.289870,1.438623,-0.987439,-0.184597,4.738821,1.655551,-7.635055,-29.526853,7.102999,-1.284890,-0.097479,-0.142958,0.000000,0.241372,-0.355094,0.000000
2.930000,-0.909988,-0.173106,-1.292357,0.823791,0.051072,0.287642,1.484529,-0.970524,-0.260968,4.441651,1.727721,-7.634631,-29.883953,7.324606,1.371268,-0.095051,-0.146353,0.000000,0.244304,-0.320831,-0.000000
2.940000,-0.901675,-0.172644,-1.289495,0.838853,0.041454,0.284651,1.527447,-0.952878,-0.337201,4.141602,1.801914,-7.607625,-30.103192,7.507570,4.028899,-0.092594,-0.149407,0.000000,0.247124,-0.287517,-0.000000
2.950000,-0.893209,-0.172277,-1.286667,0.854330,0.032017,0.280900,1.567356,-0.934480,-0.413032,3.840031,1.877739,-7.554095,-30.189068,7.650439,6.673883,-0.090109,-0.152132,0.000000,0.249832,-0.255271,0.000000
2.960000,-0.884587,-0.172003,-1.283880,0.870191,0.022767,0.276393,1.604230,-0.915310,-0.488187,3.536687,1.955542,-7.473513,-30.106603,7.732639,9.273819,-0.087597,-0.154536,0.000000,0.252492,-0.224058,-0.000000
2.970000,-0.875804,-0.171821,-1.281141,0.886405,0.013713,0.271139,1.638094,-0.895368,-0.562416,3.236536,2.033109,-7.367931,-29.904600,7.774176,11.835105,-0.085059,-0.156634,0.000000,0.254951,-0.194282,-0.000000
2.980000,-0.866858,-0.171728,-1.278459,0.902943,0.004862,0.265148,1.668969,-0.874648,-0.635461,2.938963,2.110893,-7.236979,-29.592388,7.775936,14.345858,-0.082498,-0.158440,0.000000,0.257283,-0.165848,0.000000
2.990000,-0.857744,-0.171723,-1.275841,0.919774,-0.003778,0.258434,1.696886,-0.853150,-0.707073,2.645024,2.188498,-7.081222,-29.179296,7.738808,16.794195,-0.079914,-0.159967,0.000000,0.259490,-0.138794,-0.000000
3.000000,-0.848461,-0.171803,-1.273293,0.936871,-0.012198,0.251012,1.721885,-0.830879,-0.777005,2.355682,2.265542,-6.901343,-28.674655,7.663677,19.168234,-0.077309,-0.161230,0.000000,0.261573,-0.113145,-0.000000
3.010000,-0.839006,-0.171966,-1.270823,0.954203,-0.020393,0.242900,1.744011,-0.807836,-0.845006,2.071209,2.342223,-6.696684,-28.072745,7.536911,21.419187,-0.074683,-0.162241,0.000000,0.263579,-0.088879,0.000000
3.020000,-0.829377,-0.172210,-1.268437,0.971742,-0.028353,0.234119,1.763330,-0.784040,-0.910866,1.793792,2.416814,-6.471624,-27.399786,7.375695,23.576596,-0.072038,-0.163017,0.000000,0.265407,-0.066068,-0.000000
3.030000,-0.819571,-0.172532,-1.266143,0.989460,-0.036071,0.224691,1.779910,-0.759506,-0.974368,1.523413,2.489631,-6.225488,-26.666951,7.182693,25.633099,-0.069375,-0.163571,0.000000,0.267110,-0.044658,-0.000000
3.040000,-0.809587,-0.172930,-1.263946,1.007331,-0.043540,0.214640,1.793824,-0.734254,-1.035309,1.260615,2.560371,-5.959322,-25.885411,6.960572,27.581332,-0.066696,-0.163917,0.000000,0.268693,-0.024621,-0.000000
3.050000,-0.799424,-0.173402,-1.261852,1.025328,-0.050754,0.203994,1.805149,-0.708306,-1.093492,1.005830,2.628754,-5.674247,-25.066337,6.711995,29.413933,-0.064002,-0.164069,0.000000,0.270161,-0.005917,0.000000
3.060000,-0.789080,-0.173945,-1.259868,1.043425,-0.057704,0.192780,1.813973,-0.681684,-1.148720,0.759767,2.694897,-5.370126,-24.230757,6.430395,31.089988,-0.061293,-0.164040,0.000000,0.271546,0.011448,-0.000000
3.070000,-0.778555,-0.174555,-1.257998,1.061599,-0.064385,0.181029,1.820373,-0.654418,-1.200841,0.521710,2.757708,-5.051370,-23.378782,6.128801,32.639791,-0.058571,-0.163843,0.000000,0.272794,0.027659,-0.000000
3.080000,-0.767848,-0.175231,-1.256249,1.079825,-0.070791,0.168774,1.824435,-0.626540,-1.249698,0.292213,2.817419,-4.717761,-22.520375,5.811007,34.060089,-0.055837,-0.163490,0.000000,0.273942,0.042716,0.000000
3.090000,-0.756958,-0.175970,-1.254624,1.098080,-0.076914,0.156047,1.826246,-0.598081,-1.295151,0.071290,2.873887,-4.370611,-21.665503,5.480810,35.347625,-0.053092,-0.162991,0.000000,0.275001,0.056687,-0.000000
3.100000,-0.745886,-0.176769,-1.253129,1.116343,-0.082751,0.142883,1.825890,-0.569073,-1.337070,-0.141142,2.927006,-4.011262,-20.824131,5.142005,36.499146,-0.050337,-0.162358,0.000000,0.275981,0.069646,-0.000000
3.110000,-0.734632,-0.177624,-1.251768,1.134591,-0.088294,0.129317,1.823465,-0.539554,-1.375328,-0.343965,2.976500,-3.640027,-20.039200,4.803716,37.484481,-0.047573,-0.161601,0.000000,0.276873,0.081542,0.000000
3.120000,-0.723195,-0.178534,-1.250544,1.152805,-0.093540,0.115388,1.819036,-0.509555,-1.409840,-0.540552,3.022837,-3.260835,-19.283662,4.463758,38.330586,-0.044800,-0.160728,0.000000,0.277742,0.092763,0.000000
3.130000,-0.711576,-0.179494,-1.249461,1.170965,-0.098484,0.101133,1.812678,-0.479109,-1.440519,-0.729756,3.065780,-2.873879,-18.563443,4.125274,39.037501,-0.042019,-0.159747,0.000000,0.278579,0.103247,0.000000
3.140000,-0.699775,-0.180502,-1.248522,1.189052,-0.103121,0.086591,1.804464,-0.448250,-1.467296,-0.911959,3.105358,-2.480549,-17.884471,3.791407,39.605266,-0.039229,-0.158664,0.000000,0.279397,0.113078,0.000000
3.150000,-0.687795,-0.181555,-1.247730,1.207048,-0.107447,0.071800,1.794461,-0.417013,-1.490113,-1.087603,3.141634,-2.082237,-17.252672,3.465301,40.033922,-0.036431,-0.157485,0.000000,0.280213,0.122340,-0.000000
3.160000,-0.675635,-0.182650,-1.247087,1.224935,-0.111460,0.056802,1.782751,-0.385429,-1.508923,-1.255445,3.174663,-1.679771,-16.718019,3.151049,40.309290,-0.033624,-0.156219,0.000000,0.281038,0.130965,0.000000
3.170000,-0.663297,-0.183783,-1.246595,1.242697,-0.115155,0.041635,1.769369,-0.353530,-1.523702,-1.420175,3.204659,-1.275874,-16.237000,2.850727,40.447370,-0.030810,-0.154866,0.000000,0.281901,0.139414,-0.000000
3.180000,-0.650781,-0.184952,-1.246255,1.260317,-0.118530,0.026341,1.754363,-0.321345,-1.534438,-1.580366,3.231734,-0.871275,-15.810150,2.567363,40.449945,-0.027986,-0.153430,0.000000,0.282817,0.147596,0.000000
3.190000,-0.638091,-0.186153,-1.246068,1.277779,-0.121581,0.010960,1.737775,-0.288904,-1.541130,-1.736561,3.256073,-0.467321,-15.438003,2.303983,40.318797,-0.025153,-0.151913,0.000000,0.283803,0.155591,0.000000
3.200000,-0.625226,-0.187383,-1.246036,1.295068,-0.124307,-0.004468,1.719643,-0.256232,-1.543791,-1.889310,3.277890,-0.065339,-15.121093,2.063614,40.055707,-0.022310,-0.150317,0.000000,0.284883,0.163483,-0.000000
3.210000,-0.612190,-0.188638,-1.246158,1.312167,-0.126705,-0.019903,1.700013,-0.223360,-1.542442,-2.037807,3.296887,0.333814,-14.894335,1.863040,39.650980,-0.019456,-0.148644,0.000000,0.286030,0.171228,-0.000000
3.220000,-0.598984,-0.189916,-1.246434,1.329062,-0.128773,-0.035304,1.678894,-0.190301,-1.537130,-2.185835,3.314628,0.727769,-14.719672,1.689846,39.119279,-0.016589,-0.146892,0.000000,0.287383,0.179196,0.000000
3.230000,-0.585610,-0.191212,-1.246863,1.345740,-0.130510,-0.050632,1.656302,-0.157073,-1.527907,-2.332362,3.330780,1.115787,-14.593427,1.545374,38.463794,-0.013707,-0.145059,0.000000,0.288910,0.187321,-0.000000
3.240000,-0.572070,-0.192525,-1.247446,1.362184,-0.131914,-0.065849,1.632250,-0.123690,-1.514838,-2.477853,3.345636,1.496643,-14.511924,1.430968,37.687709,-0.010810,-0.143144,0.000000,0.290636,0.195674,0.000000
3.250000,-0.558367,-0.193850,-1.248180,1.378380,-0.132984,-0.080917,1.606747,-0.090163,-1.498002,-2.622737,3.359504,1.869149,-14.471487,1.347969,36.794213,-0.007894,-0.141145,0.000000,0.292584,0.204318,-0.000000
3.260000,-0.544503,-0.195183,-1.249064,1.394314,-0.133717,-0.095797,1.579803,-0.056515,-1.477478,-2.766738,3.371475,2.232960,-14.485347,1.328763,35.765959,-0.004959,-0.139057,0.000000,0.294672,0.213248,-0.000000
3.270000,-0.530481,-0.196523,-1.250095,1.409971,-0.134113,-0.110454,1.551411,-0.022734,-1.453379,-2.911795,3.384794,2.585024,-14.530851,1.339848,34.629183,-0.001999,-0.136878,0.000000,0.297181,0.222681,0.000000
3.280000,-0.516305,-0.197864,-1.251272,1.425337,-0.134171,-0.124853,1.521565,0.011182,-1.425817,-3.057441,3.398365,2.925201,-14.602252,1.378765,33.389585,0.000986,-0.134602,0.000000,0.300010,0.232594,0.000000
3.290000,-0.501976,-0.199205,-1.252591,1.440397,-0.133889,-0.138960,1.490259,0.045235,-1.394918,-3.203907,3.412454,3.252492,-14.693803,1.443056,32.052867,0.004002,-0.132224,0.000000,0.303177,0.243030,0.000000
3.300000,-0.487498,-0.200541,-1.254050,1.455137,-0.133266,-0.152741,1.457484,0.079433,-1.360814,-3.351365,3.427303,3.565953,-14.799759,1.530261,30.624730,0.007051,-0.129740,0.000000,0.306699,0.254031,0.000000
3.310000,-0.472874,-0.201869,-1.255645,1.469542,-0.132300,-0.166166,1.423229,0.113781,-1.323643,-3.499875,3.442789,3.865119,-14.915794,1.646476,29.100311,0.010137,-0.127142,0.000000,0.310559,0.265619,-0.000000
3.320000,-0.458108,-0.203186,-1.257372,1.483597,-0.130989,-0.179204,1.387482,0.148293,-1.283563,-3.649627,3.459907,4.148169,-15.034566,1.779640,27.497169,0.013263,-0.124425,0.000000,0.314838,0.277848,-0.000000
3.330000,-0.443203,-0.204488,-1.259228,1.497287,-0.129333,-0.191828,1.350232,0.182984,-1.240734,-3.800556,3.478426,4.414823,-15.150155,1.926247,25.822301,0.016435,-0.121582,0.000000,0.319509,0.290725,-0.000000
3.340000,-0.428164,-0.205771,-1.261207,1.510596,-0.127329,-0.204010,1.311467,0.217867,-1.195324,-3.952600,3.498465,4.664399,-15.256640,2.082790,24.082702,0.019655,-0.118607,0.000000,0.324574,0.304266,-0.000000
3.350000,-0.412993,-0.207033,-1.263306,1.523511,-0.124975,-0.215726,1.271177,0.252958,-1.147505,-4.105638,3.520104,4.896285,-15.348100,2.245763,22.285367,0.022928,-0.115493,0.000000,0.330031,0.318478,0.000000
3.360000,-0.397695,-0.208270,-1.265520,1.536015,-0.122269,-0.226953,1.229349,0.288267,-1.097455,-4.259736,3.542710,5.110282,-15.412447,2.428825,20.428580,0.026256,-0.112234,0.000000,0.335813,0.333378,0.000000
3.370000,-0.382274,-0.209477,-1.267844,1.548093,-0.119209,-0.237669,1.185981,0.323819,-1.045362,-4.414076,3.567905,5.305103,-15.450683,2.609202,18.529114,0.029645,-0.108821,0.000000,0.342055,0.348914,0.000000
3.380000,-0.366734,-0.210653,-1.270272,1.559729,-0.115792,-0.247854,1.141067,0.359631,-0.991417,-4.568646,3.594866,5.480749,-15.457644,2.781285,16.595031,0.033098,-0.105250,0.000000,0.348669,0.365088,0.000000
3.390000,-0.351081,-0.211792,-1.272799,1.570909,-0.112015,-0.257492,1.094608,0.395721,-0.935812,-4.723107,3.623484,5.636915,-15.428164,2.939466,14.634393,0.036620,-0.101514,0.000000,0.355631,0.381874,0.000000
3.400000,-0.335318,-0.212892,-1.275420,1.581616,-0.107876,-0.266566,1.046607,0.432106,-0.878744,-4.877070,3.653591,5.773375,-15.357077,3.078137,12.655262,0.040212,-0.097606,0.000000,0.362908,0.399239,0.000000
3.410000,-0.319450,-0.213948,-1.278128,1.591836,-0.103372,-0.275062,0.997065,0.468808,-0.820413,-5.030555,3.685940,5.889785,-15.227548,3.167027,10.670759,0.043880,-0.093520,0.000000,0.370553,0.417181,0.000000
3.420000,-0.303483,-0.214958,-1.280919,1.601553,-0.098499,-0.282970,0.946001,0.505827,-0.761015,-5.181974,3.717940,5.986555,-15.047512,3.228209,8.683268,0.047624,-0.089252,0.000000,0.378302,0.435540,-0.000000
3.430000,-0.287421,-0.215917,-1.283786,1.610751,-0.093255,-0.290280,0.893432,0.543168,-0.700748,-5.331324,3.750403,6.063465,-14.813231,3.259096,6.700231,0.051446,-0.084798,0.000000,0.386206,0.454301,0.000000
3.440000,-0.271269,-0.216822,-1.286722,1.619416,-0.087635,-0.296983,0.839383,0.580836,-0.639812,-5.478045,3.783012,6.120599,-14.520971,3.257097,4.729090,0.055348,-0.080153,0.000000,0.394206,0.473392,0.000000
3.450000,-0.255034,-0.217669,-1.289723,1.627534,-0.081637,-0.303074,0.783882,0.618828,-0.578402,-5.621538,3.815426,6.158112,-14.166994,3.219625,2.777289,0.059331,-0.075315,0.000000,0.402241,0.492727,-0.000000
3.460000,-0.238721,-0.218453,-1.292782,1.635090,-0.075257,-0.308550,0.726955,0.657149,-0.516716,-5.762044,3.847946,6.176034,-13.725421,3.127219,0.857325,0.063394,-0.070280,0.000000,0.410305,0.512298,0.000000
3.470000,-0.222334,-0.219172,-1.295892,1.642069,-0.068493,-0.313408,0.668657,0.695783,-0.454944,-5.896813,3.878595,6.175144,-13.217371,2.996229,-1.029033,0.067536,-0.065048,0.000000,0.418175,0.531798,-0.000000
3.480000,-0.205881,-0.219822,-1.299048,1.648458,-0.061341,-0.317649,0.609037,0.734716,-0.393275,-6.026166,3.907740,6.155588,-12.641819,2.826131,-2.874962,0.071757,-0.059620,0.000000,0.425844,0.551209,0.000000
3.490000,-0.189367,-0.220398,-1.302243,1.654245,-0.053798,-0.321275,0.548154,0.773932,-0.331894,-6.149421,3.934986,6.117803,-11.997741,2.616404,-4.673639,0.076052,-0.053996,0.000000,0.433233,0.570411,-0.000000
3.500000,-0.172798,-0.220897,-1.305471,1.659417,-0.045861,-0.324289,0.486071,0.813408,-0.270978,-6.265889,3.959934,6.062295,-11.284112,2.366525,-6.418239,0.080420,-0.048179,0.000000,0.440260,0.589275,0.000000
3.510000,-0.156181,-0.221314,-1.308727,1.663963,-0.037529,-0.326696,0.422849,0.853124,-0.210709,-6.375966,3.982419,5.989264,-10.472183,2.069947,-8.092413,0.084856,-0.042173,0.000000,0.446861,0.607777,-0.000000
3.520000,-0.139521,-0.221646,-1.312003,1.667871,-0.028798,-0.328505,0.358580,0.893046,-0.151248,-6.476343,4.001467,5.900244,-9.592049,1.732908,-9.700030,0.089355,-0.035982,0.000000,0.452902,0.625512,-0.000000
3.530000,-0.122826,-0.221889,-1.315295,1.671132,-0.019667,-0.329725,0.293353,0.933141,-0.092756,-6.567587,4.016943,5.795504,-8.646079,1.355626,-11.235433,0.093912,-0.029615,0.000000,0.458319,0.642461,-0.000000
3.540000,-0.106101,-0.222038,-1.318596,1.673735,-0.010135,-0.330364,0.227261,0.973372,-0.035388,-6.649053,4.028446,5.675795,-7.636643,0.938314,-12.692964,0.098519,-0.023079,0.000000,0.463028,0.658479,0.000000
3.550000,-0.089353,-0.222090,-1.321900,1.675674,-0.000200,-0.330436,0.160406,1.013696,0.020712,-6.720117,4.035577,5.541923,-6.566112,0.481188,-14.066967,0.103170,-0.016384,0.000000,0.466947,0.673418,0.000000
3.560000,-0.072590,-0.222041,-1.325203,1.676942,0.010139,-0.329954,0.092885,1.054077,0.075397,-6.781114,4.038777,5.393847,-5.413249,-0.036735,-15.328900,0.107856,-0.009541,0.000000,0.470068,0.687232,-0.000000
3.570000,-0.055817,-0.221886,-1.328498,1.677531,0.020882,-0.328933,0.024823,1.094453,0.128549,-6.829257,4.035666,5.234630,-4.206921,-0.591446,-16.498793,0.112568,-0.002564,0.000000,0.472137,0.699549,0.000000
3.580000,-0.039041,-0.221622,-1.331780,1.677437,0.032028,-0.327389,-0.043659,1.134771,0.180052,-6.865092,4.026835,5.064187,-2.952388,-1.180134,-17.573790,0.117296,0.004534,0.000000,0.473169,0.710345,0.000000
3.590000,-0.022270,-0.221244,-1.335044,1.676656,0.043577,-0.325338,-0.112436,1.174970,0.229798,-6.888162,4.011960,4.883480,-1.654912,-1.799988,-18.551036,0.122028,0.011736,0.000000,0.473102,0.719492,-0.000000
3.600000,-0.005510,-0.220749,-1.338285,1.675187,0.055527,-0.322799,-0.181378,1.214989,0.277690,-6.898064,3.990741,4.693502,-0.319753,-2.448198,-19.427675,0.126754,0.019025,0.000000,0.471885,0.726876,-0.000000
3.610000,0.011231,-0.220132,-1.341498,1.673029,0.067875,-0.319791,-0.250358,1.254767,0.323630,-6.895022,3.963287,4.494283,1.062312,-3.131453,-20.175877,0.131462,0.026385,0.000000,0.469498,0.732448,0.000000
3.620000,0.027948,-0.219390,-1.344679,1.670181,0.080621,-0.316333,-0.319232,1.294231,0.367553,-6.877380,3.928464,4.289213,2.469764,-3.836279,-20.820821,0.136140,0.033795,0.000000,0.465849,0.735982,-0.000000
3.630000,0.044633,-0.218518,-1.347823,1.666645,0.093759,-0.312446,-0.387859,1.333312,0.409394,-6.845566,3.886502,4.078210,3.895571,-4.558700,-21.362711,0.140775,0.041236,0.000000,0.460946,0.737468,0.000000
3.640000,0.061279,-0.217513,-1.350927,1.662425,0.107285,-0.308152,-0.456096,1.371937,0.449101,-6.799431,3.837245,3.862302,5.332698,-5.294744,-21.801749,0.145354,0.048685,0.000000,0.454779,0.736847,-0.000000
3.650000,0.077879,-0.216371,-1.353985,1.657525,0.121196,-0.303472,-0.523799,1.410033,0.486628,-6.738898,3.780575,3.642517,6.774112,-6.040435,-22.138138,0.149866,0.056122,0.000000,0.447351,0.734081,0.000000
3.660000,0.094427,-0.215088,-1.356995,1.651951,0.135484,-0.298427,-0.590825,1.447521,0.521931,-6.663947,3.716120,3.418901,8.212491,-6.784298,-22.347336,0.154297,0.063526,0.000000,0.438629,0.729137,-0.000000
3.670000,0.110916,-0.213660,-1.359953,1.645711,0.150144,-0.293040,-0.657030,1.484330,0.555000,-6.574667,3.644546,3.194796,9.641123,-7.530779,-22.457323,0.158635,0.070873,0.000000,0.428750,0.722031,0.000000
3.680000,0.127339,-0.212084,-1.362855,1.638814,0.165168,-0.287334,-0.722271,1.520387,0.585825,-6.471180,3.565506,2.970074,11.053010,-8.276822,-22.471331,0.162868,0.078143,0.000000,0.417697,0.712770,0.000000
3.690000,0.143690,-0.210356,-1.365698,1.631270,0.180549,-0.281331,-0.786407,1.555615,0.614403,-6.353686,3.479021,2.745679,12.441152,-9.019371,-22.392595,0.166985,0.085312,0.000000,0.405514,0.701388,0.000000
3.700000,0.159962,-0.208472,-1.368480,1.623090,0.196278,-0.275054,-0.849299,1.589942,0.640743,-6.222459,3.385140,2.522521,13.798551,-9.755371,-22.224347,0.170974,0.092361,0.000000,0.392252,0.687935,0.000000
3.710000,0.176150,-0.206429,-1.371199,1.614288,0.212345,-0.268524,-0.910807,1.623295,0.664852,-6.077440,3.284048,2.300711,15.108078,-10.484365,-21.950407,0.174826,0.099267,0.000000,0.377967,0.672427,0.000000
3.720000,0.192246,-0.204224,-1.373850,1.604879,0.228740,-0.261764,-0.970805,1.655599,0.686767,-5.919991,3.175612,2.082915,16.374104,-11.200379,-21.595800,0.178531,0.106011,0.000000,0.362731,0.655069,0.000000
3.730000,0.208245,-0.201853,-1.376433,1.594877,0.245453,-0.254795,-1.029166,1.686784,0.706523,-5.750122,3.060095,1.869045,17.590871,-11.900041,-21.166136,0.182078,0.112574,0.000000,0.346611,0.635899,0.000000
3.740000,0.224141,-0.199314,-1.378945,1.584301,0.262472,-0.247640,-1.085768,1.716778,0.724164,-5.568357,2.937677,1.659824,18.752619,-12.579976,-20.667027,0.185460,0.118937,0.000000,0.329681,0.615025,0.000000
3.750000,0.239929,-0.196603,-1.381385,1.573168,0.279784,-0.240319,-1.140495,1.745515,0.739738,-5.375272,2.808573,1.455917,19.853590,-13.236810,-20.104083,0.188669,0.125084,0.000000,0.312017,0.592566,-0.000000
3.760000,0.255603,-0.193717,-1.383751,1.561498,0.297378,-0.232852,-1.193229,1.772928,0.753298,-5.170738,2.672979,1.257592,20.868613,-13.865895,-19.474220,0.191698,0.130997,0.000000,0.293687,0.568561,0.000000
3.770000,0.271158,-0.190654,-1.386042,1.549310,0.315238,-0.225259,-1.243877,1.798954,0.764911,-4.957267,2.531297,1.066216,21.813718,-14.465287,-18.792808,0.194541,0.136662,0.000000,0.274796,0.543352,0.000000
3.780000,0.286588,-0.187412,-1.388256,1.536627,0.333352,-0.217560,-1.292344,1.823534,0.774646,-4.734708,2.383783,0.881885,22.685525,-15.031769,-18.066524,0.197192,0.142068,0.000000,0.255410,0.516978,0.000000
3.790000,0.301888,-0.183987,-1.390393,1.523471,0.351704,-0.209772,-1.338544,1.846611,0.782574,-4.503812,2.230782,0.705013,23.480652,-15.562123,-17.302043,0.199648,0.147203,0.000000,0.235609,0.489579,-0.000000
3.800000,0.317056,-0.180377,-1.392451,1.509864,0.370279,-0.201914,-1.382395,1.868133,0.788772,-4.265362,2.072672,0.535949,24.195717,-16.053131,-16.506040,0.201903,0.152055,0.000000,0.215468,0.461296,0.000000
3.810000,0.332084,-0.176580,-1.394431,1.495831,0.389061,-0.194003,-1.423818,1.888038,0.793323,-4.019199,1.908857,0.375223,24.802680,-16.476215,-15.691456,0.203955,0.156616,0.000000,0.194965,0.432171,0.000000
3.820000,0.346971,-0.172595,-1.396331,1.481396,0.408034,-0.186053,-1.462761,1.906296,0.796304,-3.768487,1.742157,0.222463,25.325839,-16.856622,-14.857934,0.205802,0.160880,0.000000,0.174402,0.402580,0.000000
3.830000,0.361711,-0.168419,-1.398152,1.466584,0.427182,-0.178081,-1.499172,1.922869,0.797800,-3.512963,1.571867,0.078108,25.764829,-17.194241,-14.011385,0.207443,0.164840,0.000000,0.153736,0.372546,0.000000
3.840000,0.376301,-0.164051,-1.399893,1.451421,0.446486,-0.170102,-1.533007,1.937723,0.797895,-3.253472,1.398416,-0.057741,26.119291,-17.488959,-13.157716,0.208877,0.168492,0.000000,0.133026,0.342197,-0.000000
3.850000,0.390738,-0.159489,-1.401554,1.435933,0.465930,-0.162128,-1.564231,1.950829,0.796674,-2.990860,1.222232,-0.185042,26.388862,-17.740663,-12.302836,0.210104,0.171835,0.000000,0.112326,0.311658,0.000000
3.860000,0.405019,-0.154732,-1.403136,1.420145,0.485497,-0.154173,-1.592809,1.962160,0.794228,-2.725261,1.043713,-0.303289,26.555042,-17.948398,-11.465891,0.211124,0.174865,0.000000,0.091698,0.280984,-0.000000
3.870000,0.419140,-0.149779,-1.404638,1.404085,0.505168,-0.146247,-1.618732,1.971697,0.790636,-2.459228,0.863370,-0.413799,26.637827,-18.112998,-10.637932,0.211938,0.177582,0.000000,0.071160,0.250443,0.000000
3.880000,0.433100,-0.144628,-1.406061,1.387779,0.524925,-0.138364,-1.641992,1.979422,0.785979,-2.192776,0.681596,-0.516092,26.639077,-18.234454,-9.823247,0.212547,0.179989,0.000000,0.050764,0.220067,0.000000
3.890000,0.446895,-0.139280,-1.407405,1.371254,0.544750,-0.130531,-1.662588,1.985325,0.780341,-1.926712,0.498824,-0.610323,26.560650,-18.312758,-9.026123,0.212954,0.182086,0.000000,0.030548,0.189952,0.000000
3.900000,0.460524,-0.133733,-1.408671,1.354536,0.564625,-0.122760,-1.680530,1.989397,0.773799,-1.661822,0.315485,-0.696687,26.404405,-18.347900,-8.250847,0.213159,0.183877,0.000000,0.010545,0.160190,0.000000
3.910000,0.473985,-0.127987,-1.409860,1.337652,0.584532,-0.115058,-1.695826,1.991630,0.766440,-1.398395,0.131617,-0.774690,26.160022,-18.329936,-7.520303,0.213165,0.185365,0.000000,-0.009238,0.130829,0.000000
3.920000,0.487277,-0.122042,-1.410973,1.320628,0.604452,-0.107434,-1.708507,1.992031,0.758329,-1.138320,-0.051417,-0.846357,25.843031,-18.270009,-6.817907,0.212975,0.186556,0.000000,-0.028720,0.102032,0.000000
3.930000,0.500398,-0.115898,-1.412009,1.303491,0.624366,-0.099894,-1.718604,1.990604,0.749536,-0.881765,-0.233647,-0.911149,25.456779,-18.169326,-6.145669,0.212592,0.187455,0.000000,-0.047903,0.073827,0.000000
3.940000,0.513346,-0.109555,-1.412971,1.286265,0.644258,-0.092445,-1.726156,1.987362,0.740128,-0.629404,-0.414672,-0.969378,25.004618,-18.029096,-5.505601,0.212018,0.188068,0.000000,-0.066765,0.046279,0.000000
3.950000,0.526123,-0.103013,-1.413859,1.268976,0.664108,-0.085093,-1.731209,1.982316,0.730169,-0.381881,-0.594101,-1.021375,24.489897,-17.850524,-4.899713,0.211258,0.188404,0.000000,-0.085288,0.019445,-0.000000
3.960000,0.538726,-0.096273,-1.414673,1.251649,0.683898,-0.077843,-1.733810,1.975484,0.719727,-0.139605,-0.771735,-1.066830,23.910938,-17.630372,-4.346760,0.210314,0.188469,0.000000,-0.103456,-0.006631,-0.000000
3.970000,0.551156,-0.089336,-1.415416,1.234308,0.703611,-0.070700,-1.734021,1.966890,0.708850,0.096378,-0.946790,-1.107683,23.276735,-17.374839,-3.829959,0.209190,0.188271,0.000000,-0.121247,-0.031885,-0.000000
3.980000,0.563412,-0.082201,-1.416088,1.216976,0.723230,-0.063668,-1.731904,1.956558,0.697590,0.325759,-1.119119,-1.143549,22.591253,-17.085678,-3.349271,0.207890,0.187820,0.000000,-0.138649,-0.056284,-0.000000
3.990000,0.575495,-0.074871,-1.416690,1.199677,0.742737,-0.056750,-1.727529,1.944517,0.685995,0.548045,-1.288397,-1.174789,21.858457,-16.764641,-2.904656,0.206418,0.187124,0.000000,-0.155649,-0.079792,-0.000000
4.000000,0.587406,-0.067347,-1.417223,1.182433,0.762115,-0.049949,-1.720969,1.930801,0.674109,0.762784,-1.454312,-1.201763,21.082313,-16.413480,-2.496076,0.204778,0.186193,0.000000,-0.172235,-0.102377,0.000000
4.010000,0.599144,-0.059629,-1.417689,1.165265,0.781348,-0.043268,-1.712300,1.915442,0.661978,0.969555,-1.616651,-1.224378,20.266910,-16.031956,-2.134915,0.202975,0.185036,0.000000,-0.188393,-0.124003,0.000000
4.020000,0.610711,-0.051721,-1.418089,1.148194,0.800418,-0.036710,-1.701605,1.898481,0.649633,1.167998,-1.774952,-1.244066,19.416074,-15.624057,-1.808312,0.201012,0.183664,0.000000,-0.204115,-0.144666,-0.000000
4.030000,0.622108,-0.043622,-1.418424,1.131239,0.819312,-0.030276,-1.688969,1.879957,0.637107,1.357772,-1.929051,-1.260655,18.533757,-15.191778,-1.514826,0.198894,0.182087,0.000000,-0.219389,-0.164337,-0.000000
4.040000,0.633337,-0.035335,-1.418695,1.114420,0.838013,-0.023968,-1.674480,1.859915,0.624429,1.538582,-2.078713,-1.274468,17.623907,-14.737117,-1.253021,0.196626,0.180315,0.000000,-0.234202,-0.182997,0.000000
4.050000,0.644397,-0.026862,-1.418903,1.097755,0.856505,-0.017788,-1.658228,1.838399,0.611625,1.710171,-2.223725,-1.285816,16.690475,-14.262069,-1.021457,0.194212,0.178358,0.000000,-0.248546,-0.200632,-0.000000
4.060000,0.655292,-0.018206,-1.419051,1.081261,0.874776,-0.011736,-1.640309,1.815457,0.598722,1.872193,-2.363880,-1.294798,15.740770,-13.768951,-0.823625,0.191656,0.176229,0.000000,-0.262404,-0.217214,-0.000000
4.070000,0.666023,-0.009367,-1.419139,1.064954,0.892810,-0.005814,-1.620816,1.791138,0.585736,2.024783,-2.499035,-1.302158,14.774972,-13.259400,-0.652554,0.188965,0.173937,0.000000,-0.275779,-0.232775,-0.000000
4.080000,0.676592,-0.000350,-1.419168,1.048850,0.910594,-0.000022,-1.599846,1.765493,0.572684,2.167650,-2.629020,-1.307932,13.796620,-12.735372,-0.506204,0.186142,0.171493,0.000000,-0.288654,-0.247290,-0.000000
4.090000,0.687001,0.008844,-1.419139,1.032962,0.928115,0.005640,-1.577496,1.738575,0.559581,2.300686,-2.753701,-1.312357,12.809254,-12.198823,-0.382533,0.183194,0.168908,0.000000,-0.301021,-0.260755,-0.000000
4.100000,0.697252,0.018211,-1.419055,1.017304,0.945362,0.011170,-1.553865,1.710437,0.546441,2.423817,-2.872961,-1.315651,11.816413,-11.651711,-0.279499,0.180124,0.166192,0.000000,-0.312869,-0.273169,-0.000000
4.110000,0.707348,0.027750,-1.418916,1.001889,0.962320,0.016568,-1.529055,1.681135,0.533271,2.536804,-2.986626,-1.318038,10.826775,-11.098003,-0.194349,0.176938,0.163358,0.000000,-0.324184,-0.284513,0.000000
4.120000,0.717291,0.037457,-1.418724,0.986727,0.978980,0.021835,-1.503162,1.650723,0.520082,2.640126,-3.094809,-1.319625,9.838111,-10.537399,-0.125840,0.173642,0.160415,0.000000,-0.334973,-0.294839,-0.000000
4.130000,0.727083,0.047328,-1.418480,0.971829,0.995331,0.026970,-1.476286,1.619258,0.506881,2.733579,-3.197357,-1.320603,8.853330,-9.971608,-0.072019,0.170240,0.157375,0.000000,-0.345222,-0.304129,-0.000000
4.140000,0.736728,0.057362,-1.418185,0.957204,1.011362,0.031973,-1.448523,1.586795,0.493672,2.817216,-3.294229,-1.321108,7.875342,-9.402342,-0.030930,0.166739,0.154247,0.000000,-0.354922,-0.312392,-0.000000
4.150000,0.746228,0.067555,-1.417841,0.942861,1.027064,0.036843,-1.419974,1.553392,0.480460,2.891118,-3.385398,-1.321258,6.907056,-8.831310,-0.000620,0.163144,0.151043,0.000000,-0.364069,-0.319638,-0.000000
4.160000,0.755586,0.077902,-1.417449,0.928807,1.042427,0.041582,-1.390736,1.519107,0.467246,2.955163,-3.470743,-1.321320,5.957339,-8.263065,0.025162,0.159460,0.147772,0.000000,-0.372647,-0.325857,-0.000000
4.170000,0.764805,0.088402,-1.417010,0.915048,1.057443,0.046188,-1.360902,1.483996,0.454034,3.010049,-3.550537,-1.320971,5.022415,-7.696127,0.043548,0.155693,0.144445,0.000000,-0.380673,-0.331117,0.000000
4.180000,0.773888,0.099050,-1.416526,0.901591,1.072105,0.050663,-1.330566,1.448115,0.440827,3.055668,-3.624674,-1.320469,4.104464,-7.131859,0.055966,0.151848,0.141072,0.000000,-0.388133,-0.335408,0.000000
4.190000,0.782838,0.109843,-1.415997,0.888438,1.086403,0.055005,-1.299819,1.411522,0.427625,3.092202,-3.693188,-1.319867,3.205666,-6.571623,0.063844,0.147932,0.137662,0.000000,-0.395027,-0.338750,-0.000000
4.200000,0.791658,0.120777,-1.415426,0.875595,1.100333,0.059215,-1.268751,1.374270,0.414430,3.119852,-3.756124,-1.319203,2.328203,-6.016783,0.068611,0.143950,0.134225,0.000000,-0.401352,-0.341164,-0.000000
4.210000,0.800351,0.131848,-1.414813,0.863064,1.113887,0.063293,-1.237453,1.336419,0.401239,3.138601,-3.813421,-1.318721,1.480402,-5.471852,0.077271,0.139907,0.130771,0.000000,-0.407100,-0.342650,-0.000000
4.220000,0.808920,0.143053,-1.414161,0.850847,1.127059,0.067240,-1.206007,1.298020,0.388056,3.149269,-3.865447,-1.317909,0.657544,-4.934655,0.084993,0.135810,0.127308,0.000000,-0.412295,-0.343286,-0.000000
4.230000,0.817369,0.154388,-1.413469,0.838944,1.139845,0.071055,-1.174495,1.259128,0.374881,3.151839,-3.912143,-1.317022,-0.138945,-4.406167,0.092523,0.131663,0.123844,0.000000,-0.416929,-0.343072,-0.000000
4.240000,0.825700,0.165849,-1.412740,0.827357,1.152240,0.074738,-1.142996,1.219795,0.361715,3.146583,-3.953602,-1.316057,-0.907636,-3.887366,0.100604,0.127473,0.120389,0.000000,-0.421008,-0.342038,0.000000
4.250000,0.833917,0.177432,-1.411975,0.816084,1.164240,0.078289,-1.111588,1.180073,0.348560,3.133784,-3.989926,-1.315005,-1.647103,-3.379227,0.109983,0.123245,0.116950,0.000000,-0.424536,-0.340213,0.000000
4.260000,0.842023,0.189132,-1.411175,0.805125,1.175841,0.081709,-1.080347,1.140014,0.335413,3.113510,-4.021102,-1.314046,-2.350023,-2.885837,0.126346,0.118984,0.113535,0.000000,-0.427512,-0.337607,0.000000
4.270000,0.850021,0.200947,-1.410341,0.794476,1.187039,0.084997,-1.049341,1.099667,0.322280,3.086625,-4.047545,-1.312692,-3.021584,-2.404681,0.144892,0.114696,0.110152,0.000000,-0.429968,-0.334303,-0.000000
4.280000,0.857914,0.212872,-1.409475,0.784137,1.197833,0.088155,-1.018637,1.059079,0.309160,3.053185,-4.069239,-1.311141,-3.661082,-1.936356,0.165761,0.110386,0.106807,0.000000,-0.431903,-0.330313,-0.000000
4.290000,0.865705,0.224902,-1.408578,0.774102,1.208220,0.091181,-0.988298,1.018297,0.296058,3.013513,-4.086316,-1.309368,-4.267809,-1.481455,0.189093,0.106060,0.103508,0.000000,-0.433328,-0.325669,0.000000
4.300000,0.873397,0.237035,-1.407652,0.764369,1.218199,0.094076,-0.958386,0.977368,0.282974,2.967940,-4.098915,-1.307350,-4.841060,-1.040576,0.215028,0.101721,0.100259,0.000000,-0.434256,-0.320409,0.000000
4.310000,0.880993,0.249265,-1.406697,0.754933,1.227767,0.096840,-0.928960,0.936335,0.269910,2.916597,-4.107065,-1.305184,-5.374875,-0.617123,0.246859,0.097376,0.097068,0.000000,-0.434690,-0.314548,0.000000
4.320000,0.888496,0.261589,-1.405716,0.745789,1.236925,0.099474,-0.900071,0.895240,0.256871,2.860322,-4.111181,-1.302545,-5.874445,-0.208538,0.281188,0.093029,0.093940,0.000000,-0.434668,-0.308173,0.000000
4.330000,0.895910,0.274002,-1.404708,0.736930,1.245672,0.101978,-0.871770,0.854125,0.243860,2.799223,-4.111287,-1.299552,-6.339708,0.184927,0.317768,0.088685,0.090880,0.000000,-0.434197,-0.301297,-0.000000
4.340000,0.903236,0.286501,-1.403676,0.728351,1.254008,0.104351,-0.844102,0.813027,0.230881,2.733643,-4.107534,-1.296183,-6.770601,0.563022,0.356354,0.084347,0.087892,0.000000,-0.433291,-0.293959,-0.000000
4.350000,0.910478,0.299081,-1.402622,0.720046,1.261933,0.106595,-0.817111,0.771986,0.217938,2.663926,-4.100078,-1.292419,-7.167063,0.925494,0.396701,0.080020,0.084981,0.000000,-0.431968,-0.286197,0.000000
4.360000,0.917638,0.311738,-1.401545,0.712006,1.269448,0.108710,-0.790838,0.731039,0.205034,2.590246,-4.088984,-1.288285,-7.524733,1.269752,0.439604,0.075709,0.082151,0.000000,-0.430237,-0.278032,-0.000000
4.370000,0.924719,0.324469,-1.400448,0.704226,1.276554,0.110696,-0.765317,0.690218,0.192174,2.513353,-4.074631,-1.283670,-7.848372,1.598170,0.483648,0.071417,0.079405,0.000000,-0.428138,-0.269543,-0.000000
4.380000,0.931723,0.337268,-1.399331,0.696698,1.283253,0.112554,-0.740581,0.649557,0.179362,2.433391,-4.057074,-1.278610,-8.138444,1.910786,0.528459,0.067147,0.076747,0.000000,-0.425679,-0.260747,-0.000000
4.390000,0.938653,0.350132,-1.398197,0.689412,1.289546,0.114284,-0.716658,0.609086,0.166603,2.350694,-4.036468,-1.273100,-8.395412,2.207632,0.573664,0.062904,0.074180,0.000000,-0.422879,-0.251682,-0.000000
4.400000,0.945512,0.363057,-1.397046,0.682362,1.295435,0.115886,-0.693575,0.568837,0.153901,2.265591,-4.012973,-1.267137,-8.619740,2.488745,0.618888,0.058691,0.071705,0.000000,-0.419758,-0.242383,0.000000
4.410000,0.952301,0.376040,-1.395880,0.675538,1.300923,0.117362,-0.671355,0.528837,0.141262,2.178282,-3.986675,-1.260695,-8.808757,2.752372,0.663042,0.054510,0.069324,0.000000,-0.416327,-0.232874,-0.000000
4.420000,0.959023,0.389075,-1.394699,0.668932,1.306013,0.118712,-0.650015,0.489112,0.128689,2.089381,-3.957898,-1.253846,-8.966445,3.000554,0.706556,0.050365,0.067041,0.000000,-0.412624,-0.223221,-0.000000
4.430000,0.965681,0.402159,-1.393506,0.662534,1.310706,0.119936,-0.629572,0.449687,0.116187,1.999055,-3.926715,-1.246567,-9.093652,3.233546,0.749145,0.046259,0.064855,0.000000,-0.408657,-0.213442,0.000000
4.440000,0.972275,0.415287,-1.392301,0.656337,1.315007,0.121036,-0.610038,0.410585,0.103759,1.907606,-3.893276,-1.238867,-9.191224,3.451601,0.790523,0.042193,0.062768,0.000000,-0.404448,-0.203570,-0.000000
4.450000,0.978808,0.428457,-1.391086,0.650331,1.318919,0.122011,-0.591423,0.371828,0.091411,1.815327,-3.857731,-1.230761,-9.260009,3.654974,0.830403,0.038170,0.060780,0.000000,-0.400013,-0.193637,0.000000
4.460000,0.985282,0.441665,-1.389861,0.644506,1.322445,0.122864,-0.573734,0.333438,0.079146,1.722423,-3.820177,-1.222196,-9.298938,3.842693,0.866764,0.034193,0.058892,0.000000,-0.395366,-0.183666,0.000000
4.470000,0.991699,0.454905,-1.388629,0.638853,1.325589,0.123595,-0.556975,0.295431,0.066968,1.629352,-3.780870,-1.213355,-9.311009,4.016387,0.901269,0.030264,0.057104,0.000000,-0.390538,-0.173704,0.000000
4.480000,0.998060,0.468175,-1.387390,0.633363,1.328355,0.124204,-0.541147,0.257826,0.054880,1.536289,-3.739894,-1.204177,-9.297305,4.176461,0.933844,0.026383,0.055416,0.000000,-0.385538,-0.163772,-0.000000
4.490000,1.004366,0.481471,-1.386145,0.628027,1.330747,0.124692,-0.526248,0.220638,0.042885,1.443488,-3.697385,-1.194684,-9.258909,4.323317,0.964416,0.022553,0.053828,0.000000,-0.380385,-0.153895,-0.000000
4.500000,1.010621,0.494789,-1.384896,0.622835,1.332769,0.125062,-0.512275,0.183883,0.030987,1.351190,-3.653471,-1.184896,-9.196902,4.457361,0.992911,0.018776,0.052337,0.000000,-0.375093,-0.144099,-0.000000
4.510000,1.016824,0.508125,-1.383644,0.617778,1.334426,0.125313,-0.499222,0.147573,0.019189,1.259593,-3.608251,-1.174757,-9.111571,4.578291,1.017336,0.015052,0.050945,0.000000,-0.369676,-0.134404,-0.000000
4.520000,1.022977,0.521476,-1.382390,0.612847,1.335722,0.125446,-0.487080,0.111722,0.007493,1.168994,-3.561913,-1.164470,-9.004891,4.687303,1.039772,0.011383,0.049649,0.000000,-0.364154,-0.124841,-0.000000
4.530000,1.029081,0.534838,-1.381136,0.608034,1.336662,0.125463,-0.475839,0.076338,-0.004099,1.079563,-3.514543,-1.153968,-8.878043,4.784885,1.060381,0.007769,0.048447,0.000000,-0.358540,-0.115427,0.000000
4.540000,1.035138,0.548208,-1.379882,0.603328,1.337251,0.125364,-0.465485,0.041434,-0.015586,0.991496,-3.466252,-1.143268,-8.732206,4.871528,1.079325,0.004212,0.047339,0.000000,-0.352846,-0.106183,-0.000000
4.550000,1.041148,0.561582,-1.378629,0.598721,1.337493,0.125151,-0.456004,0.007016,-0.026964,0.904978,-3.417147,-1.132386,-8.568561,4.947723,1.096766,0.000712,0.046323,0.000000,-0.347084,-0.097125,0.000000
4.560000,1.047112,0.574957,-1.377379,0.594205,1.337393,0.124825,-0.447379,-0.026907,-0.038232,0.820185,-3.367321,-1.121281,-8.388411,5.013711,1.111453,-0.002729,0.045396,0.000000,-0.341267,-0.088272,-0.000000
4.570000,1.053032,0.588329,-1.376133,0.589771,1.336956,0.124387,-0.439594,-0.060328,-0.049389,0.737267,-3.316893,-1.110098,-8.192797,5.070261,1.125132,-0.006113,0.044557,0.000000,-0.335407,-0.079638,0.000000
4.580000,1.058908,0.601695,-1.374892,0.585410,1.336188,0.123838,-0.432627,-0.093243,-0.060434,0.656377,-3.265945,-1.098781,-7.982882,5.117893,1.138139,-0.009437,0.043803,0.000000,-0.329514,-0.071239,-0.000000
4.590000,1.064741,0.615052,-1.373656,0.581115,1.335093,0.123179,-0.426459,-0.125646,-0.071365,0.577653,-3.214563,-1.087336,-7.759833,5.157128,1.150808,-0.012703,0.043131,0.000000,-0.323598,-0.063085,-0.000000
4.600000,1.070531,0.628396,-1.372428,0.576878,1.333677,0.122411,-0.421066,-0.157533,-0.082180,0.501220,-3.162829,-1.075765,-7.524813,5.188485,1.163473,-0.015909,0.042540,0.000000,-0.317668,-0.055190,-0.000000
4.610000,1.076278,0.641724,-1.371209,0.572692,1.331944,0.121536,-0.416426,-0.188901,-0.092879,0.427225,-3.110824,-1.064046,-7.279789,5.212633,1.175979,-0.019056,0.042026,0.000000,-0.311733,-0.047567,-0.000000
4.620000,1.081985,0.655034,-1.369998,0.568547,1.329900,0.120554,-0.412514,-0.219749,-0.103461,0.355693,-3.058606,-1.052221,-7.025024,5.229926,1.189211,-0.022144,0.041587,0.000000,-0.305800,-0.040217,0.000000
4.630000,1.087649,0.668321,-1.368798,0.564439,1.327551,0.119467,-0.409304,-0.250073,-0.113923,0.286753,-3.006247,-1.040258,-6.761587,5.240867,1.203563,-0.025172,0.041221,0.000000,-0.299877,-0.033152,0.000000
4.640000,1.093273,0.681584,-1.367609,0.560359,1.324901,0.118276,-0.406770,-0.279873,-0.124265,0.220486,-2.953808,-1.028145,-6.490543,5.245958,1.219430,-0.028142,0.040923,0.000000,-0.293971,-0.026378,-0.000000
4.650000,1.098857,0.694818,-1.366433,0.556301,1.321955,0.116982,-0.404885,-0.309149,-0.134486,0.156964,-2.901345,-1.015863,-6.212959,5.245703,1.237205,-0.031052,0.040692,0.000000,-0.288087,-0.019901,-0.000000
4.660000,1.104400,0.708022,-1.365270,0.552259,1.318719,0.115586,-0.403620,-0.337901,-0.144582,0.096295,-2.848928,-1.003414,-5.931139,5.241063,1.257809,-0.033903,0.040524,0.000000,-0.282233,-0.013730,-0.000000
4.670000,1.109902,0.721192,-1.364121,0.548227,1.315199,0.114091,-0.402949,-0.366128,-0.154553,0.038412,-2.796559,-0.990722,-5.644760,5.232024,1.281046,-0.036697,0.040416,0.000000,-0.276410,-0.007857,0.000000
4.680000,1.115364,0.734325,-1.362988,0.544198,1.311399,0.112496,-0.402843,-0.393832,-0.164396,-0.016588,-2.744301,-0.977783,-5.354738,5.219033,1.307248,-0.039432,0.040366,0.000000,-0.270625,-0.002291,-0.000000
4.690000,1.120786,0.747419,-1.361872,0.540168,1.307324,0.110803,-0.403271,-0.421014,-0.174108,-0.068674,-2.692190,-0.964566,-5.061986,5.202536,1.336745,-0.042109,0.040369,0.000000,-0.264882,0.002969,-0.000000
4.700000,1.126167,0.760470,-1.360772,0.536131,1.302980,0.109014,-0.404206,-0.447677,-0.183686,-0.117822,-2.640260,-0.951036,-4.767420,5.182979,1.369867,-0.044729,0.040424,0.000000,-0.259184,0.007920,0.000000
4.710000,1.131508,0.773477,-1.359692,0.532083,1.298372,0.107130,-0.405617,-0.473821,-0.193128,-0.163961,-2.588568,-0.937209,-4.473435,5.161520,1.408314,-0.047293,0.040527,0.000000,-0.253537,0.012557,0.000000
4.720000,1.136809,0.786437,-1.358630,0.528018,1.293505,0.105152,-0.407476,-0.499449,-0.202429,-0.207224,-2.537069,-0.922917,-4.179285,5.137806,1.450879,-0.049800,0.040675,0.000000,-0.247938,0.016896,0.000000
4.730000,1.142069,0.799347,-1.357589,0.523932,1.288385,0.103082,-0.409752,-0.524563,-0.211585,-0.247548,-2.485818,-0.908177,-3.885703,5.112197,1.497725,-0.052252,0.040864,0.000000,-0.242392,0.020933,-0.000000
4.740000,1.147288,0.812204,-1.356569,0.519821,1.283016,0.100921,-0.412417,-0.549166,-0.220591,-0.284943,-2.434830,-0.892948,-3.593422,5.085052,1.549015,-0.054648,0.041093,0.000000,-0.236901,0.024668,-0.000000
4.750000,1.152465,0.825006,-1.355571,0.515682,1.277403,0.098671,-0.415441,-0.573260,-0.229442,-0.319424,-2.384121,-0.877182,-3.303176,5.056729,1.604912,-0.056990,0.041357,0.000000,-0.231468,0.028107,-0.000000
4.760000,1.157601,0.837751,-1.354596,0.511511,1.271552,0.096333,-0.418795,-0.596850,-0.238133,-0.350953,-2.333733,-0.860907,-3.017268,5.028463,1.667442,-0.059278,0.041655,0.000000,-0.226095,0.031247,0.000000
4.770000,1.162695,0.850436,-1.353644,0.507305,1.265468,0.093908,-0.422451,-0.619936,-0.246658,-0.379710,-2.283592,-0.843901,-2.734670,4.999630,1.734677,-0.061512,0.041982,0.000000,-0.220778,0.034107,0.000000
4.780000,1.167747,0.863060,-1.352718,0.503061,1.259155,0.091400,-0.426380,-0.642522,-0.255009,-0.405660,-2.233742,-0.826198,-2.455924,4.970483,1.806549,-0.063694,0.042337,0.000000,-0.215521,0.036686,-0.000000
4.790000,1.172756,0.875619,-1.351817,0.498777,1.252619,0.088809,-0.430555,-0.664612,-0.263179,-0.428843,-2.184183,-0.807754,-2.181572,4.941274,1.882994,-0.065823,0.042717,0.000000,-0.210324,0.038989,-0.000000
4.800000,1.177722,0.888111,-1.350942,0.494449,1.245865,0.086137,-0.434948,-0.686207,-0.271161,-0.449307,-2.134915,-0.788523,-1.912154,4.912255,1.963946,-0.067900,0.043118,0.000000,-0.205187,0.041023,0.000000
4.810000,1.182645,0.900535,-1.350094,0.490077,1.238897,0.083386,-0.439531,-0.707311,-0.278948,-0.467044,-2.085972,-0.768537,-1.649748,4.884580,2.051273,-0.069927,0.043538,0.000000,-0.200114,0.042788,0.000000
4.820000,1.187524,0.912889,-1.349274,0.485658,1.231720,0.080559,-0.444280,-0.727927,-0.286529,-0.482253,-2.037262,-0.747570,-1.393172,4.857488,2.142740,-0.071903,0.043975,0.000000,-0.195097,0.044305,-0.000000
4.830000,1.192358,0.925169,-1.348483,0.481191,1.224340,0.077656,-0.449168,-0.748058,-0.293896,-0.494928,-1.988820,-0.725670,-1.142780,4.831123,2.238043,-0.073829,0.044426,0.000000,-0.190140,0.045576,0.000000
4.840000,1.197148,0.937375,-1.347722,0.476675,1.216761,0.074682,-0.454170,-0.767705,-0.301039,-0.505131,-1.940637,-0.702798,-0.898926,4.805624,2.336881,-0.075706,0.044888,0.000000,-0.185242,0.046608,-0.000000
4.850000,1.201891,0.949504,-1.346990,0.472107,1.208987,0.071636,-0.459263,-0.786871,-0.307949,-0.512929,-1.892704,-0.678921,-0.661963,4.781135,2.438952,-0.077534,0.045360,0.000000,-0.180402,0.047408,0.000000
4.860000,1.206589,0.961554,-1.346289,0.467489,1.201025,0.068523,-0.464420,-0.805560,-0.314615,-0.518338,-1.845042,-0.654073,-0.433658,4.758601,2.545563,-0.079314,0.045838,0.000000,-0.175622,0.047980,0.000000
4.870000,1.211241,0.973523,-1.345620,0.462819,1.192878,0.065345,-0.469622,-0.823773,-0.321027,-0.521564,-1.797564,-0.628074,-0.212778,4.737262,2.654605,-0.081047,0.046322,0.000000,-0.170896,0.048345,0.000000
4.880000,1.215846,0.985411,-1.344982,0.458097,1.184551,0.062104,-0.474845,-0.841512,-0.327173,-0.522619,-1.750293,-0.600974,0.000495,4.717160,2.765579,-0.082732,0.046808,0.000000,-0.166224,0.048504,-0.000000
4.890000,1.220403,0.997214,-1.344378,0.453322,1.176049,0.058802,-0.480067,-0.858779,-0.333042,-0.521580,-1.703216,-0.572757,0.205982,4.698339,2.877985,-0.084371,0.047294,0.000000,-0.161606,0.048468,0.000000
4.900000,1.224912,1.008931,-1.343807,0.448495,1.167377,0.055444,-0.485269,-0.875577,-0.338624,-0.518526,-1.656322,-0.543411,0.403500,4.680843,2.991324,-0.085965,0.047780,0.000000,-0.157040,0.048243,0.000000
4.910000,1.229373,1.020561,-1.343269,0.443617,1.158539,0.052031,-0.490431,-0.891906,-0.343907,-0.513489,-1.609618,-0.512968,0.591655,4.665291,3.106082,-0.087512,0.048262,0.000000,-0.152527,0.047835,0.000000
4.920000,1.233784,1.032101,-1.342766,0.438687,1.149540,0.048567,-0.495533,-0.907770,-0.348880,-0.506666,-1.563037,-0.481334,0.771629,4.651080,3.220653,-0.089015,0.048740,0.000000,-0.148062,0.047262,0.000000
4.930000,1.238146,1.043551,-1.342298,0.433706,1.140385,0.045054,-0.500558,-0.923168,-0.353530,-0.498084,-1.516592,-0.448558,0.943391,4.638182,3.334417,-0.090474,0.049211,0.000000,-0.143643,0.046529,0.000000
4.940000,1.242458,1.054909,-1.341865,0.428676,1.131078,0.041497,-0.505489,-0.938102,-0.357847,-0.487826,-1.470269,-0.414651,1.106910,4.626569,3.446755,-0.091888,0.049674,0.000000,-0.139271,0.045643,0.000000
4.950000,1.246719,1.066172,-1.341468,0.423597,1.121625,0.037899,-0.510309,-0.952573,-0.361819,-0.475973,-1.424056,-0.379630,1.262154,4.616213,3.557047,-0.093259,0.050127,0.000000,-0.134943,0.044613,-0.000000
4.960000,1.250930,1.077341,-1.341107,0.418470,1.112029,0.034262,-0.515003,-0.966583,-0.365436,-0.462572,-1.377951,-0.343526,1.408125,4.607353,3.664863,-0.094587,0.050569,0.000000,-0.130658,0.043444,-0.000000
4.970000,1.255089,1.088412,-1.340783,0.413297,1.102295,0.030591,-0.519556,-0.980133,-0.368686,-0.447795,-1.331917,-0.306352,1.545876,4.599664,3.769370,-0.095873,0.050999,0.000000,-0.126412,0.042152,0.000000
4.980000,1.259196,1.099386,-1.340496,0.408080,1.092427,0.026890,-0.523955,-0.993222,-0.371560,-0.431682,-1.285954,-0.268152,1.675493,4.593084,3.869922,-0.097116,0.051416,0.000000,-0.122204,0.040742,0.000000
4.990000,1.263250,1.110260,-1.340245,0.402819,1.082432,0.023161,-0.528186,-1.005852,-0.374046,-0.414312,-1.240052,-0.228969,1.797061,4.587555,3.965878,-0.098317,0.051818,0.000000,-0.118033,0.039220,0.000000
5.000000,1.267252,1.121034,-1.340032,0.397516,1.072312,0.019410,-0.532237,-1.018023,-0.376136,-0.395767,-1.194200,-0.188852,1.910668,4.583015,4.056592,-0.099476,0.052204,0.000000,-0.113896,0.037595,0.000000
5.010000,1.271200,1.131706,-1.339857,0.392175,1.062073,0.015640,-0.536097,-1.029736,-0.377820,-0.376098,-1.148386,-0.147832,2.015718,4.579348,4.140789,-0.100595,0.052573,0.000000,-0.109791,0.035871,0.000000
5.020000,1.275095,1.142275,-1.339720,0.386795,1.051719,0.011855,-0.539756,-1.040991,-0.379090,-0.355448,-1.102607,-0.106029,2.113063,4.576558,4.218536,-0.101672,0.052924,0.000000,-0.105716,0.034061,-0.000000
5.030000,1.278936,1.152740,-1.339620,0.381380,1.041254,0.008059,-0.543203,-1.051788,-0.379938,-0.333862,-1.056852,-0.063484,2.202872,4.574592,4.289267,-0.102709,0.053257,0.000000,-0.101668,0.032169,-0.000000
5.040000,1.282723,1.163100,-1.339559,0.375932,1.030684,0.004258,-0.546430,-1.062128,-0.380357,-0.311415,-1.011113,-0.020269,2.285315,4.573398,4.352415,-0.103706,0.053571,0.000000,-0.097646,0.030203,-0.000000
5.050000,1.286455,1.173354,-1.339535,0.370452,1.020013,0.000454,-0.549428,-1.072011,-0.380342,-0.288180,-0.965382,0.023537,2.360562,4.572922,4.407415,-0.104662,0.053864,0.000000,-0.093646,0.028167,-0.000000
5.060000,1.290132,1.183500,-1.339549,0.364944,1.009246,-0.003348,-0.552191,-1.081436,-0.379884,-0.264212,-0.919640,0.067904,2.428390,4.572806,4.452335,-0.105579,0.054137,0.000000,-0.089667,0.026067,0.000000
5.070000,1.293753,1.193538,-1.339602,0.359409,0.998386,-0.007142,-0.554711,-1.090403,-0.378982,-0.239617,-0.873910,0.112614,2.489410,4.573341,4.488142,-0.106456,0.054389,0.000000,-0.085706,0.023912,-0.000000
5.080000,1.297320,1.203467,-1.339692,0.353851,0.987439,-0.010926,-0.556981,-1.098914,-0.377631,-0.214445,-0.828171,0.157635,2.543840,4.574511,4.514437,-0.107293,0.054618,0.000000,-0.081760,0.021705,-0.000000
5.090000,1.300830,1.213287,-1.339820,0.348271,0.976409,-0.014694,-0.558998,-1.106967,-0.375829,-0.188761,-0.782418,0.202870,2.591897,4.576300,4.530822,-0.108091,0.054825,0.000000,-0.077827,0.019452,0.000000
5.100000,1.304285,1.222995,-1.339986,0.342672,0.965301,-0.018441,-0.560755,-1.114562,-0.373573,-0.162628,-0.736643,0.248217,2.633799,4.578695,4.536898,-0.108850,0.055009,0.000000,-0.073904,0.017157,-0.000000
5.110000,1.307684,1.232593,-1.340189,0.337056,0.954120,-0.022164,-0.562249,-1.121699,-0.370864,-0.136100,-0.690826,0.293648,2.669640,4.581281,4.530359,-0.109569,0.055170,0.000000,-0.069988,0.014826,-0.000000
5.120000,1.311026,1.242078,-1.340429,0.331428,0.942869,-0.025857,-0.563476,-1.128379,-0.367701,-0.109249,-0.644998,0.338873,2.699778,4.584490,4.512947,-0.110249,0.055307,0.000000,-0.066076,0.012463,-0.000000
5.130000,1.314312,1.251450,-1.340706,0.325788,0.931554,-0.029516,-0.564433,-1.134599,-0.364087,-0.082123,-0.599134,0.383870,2.724445,4.588355,4.484497,-0.110891,0.055421,0.000000,-0.062166,0.010072,0.000000
5.140000,1.317542,1.260708,-1.341019,0.320140,0.920178,-0.033137,-0.565118,-1.140361,-0.360025,-0.054777,-0.553228,0.428526,2.743875,4.592909,4.444843,-0.111493,0.055510,0.000000,-0.058253,0.007656,-0.000000
5.150000,1.320715,1.269853,-1.341369,0.314486,0.908748,-0.036715,-0.565528,-1.145664,-0.355518,-0.027262,-0.507274,0.472729,2.758299,4.598186,4.393822,-0.112056,0.055575,0.000000,-0.054336,0.005220,-0.000000
5.160000,1.323832,1.278883,-1.341754,0.308830,0.897267,-0.040246,-0.565663,-1.150506,-0.350571,0.000369,-0.461251,0.516451,2.768056,4.603937,4.329078,-0.112579,0.055615,0.000000,-0.050411,0.002767,-0.000000
5.170000,1.326892,1.287798,-1.342173,0.303174,0.885739,-0.043725,-0.565520,-1.154888,-0.345191,0.028079,-0.415180,0.559370,2.773261,4.610512,4.252904,-0.113064,0.055630,0.000000,-0.046474,0.000300,-0.000000
5.180000,1.329895,1.296598,-1.342628,0.297521,0.874171,-0.047148,-0.565101,-1.158810,-0.339386,0.055820,-0.369038,0.601471,2.774135,4.617977,4.165402,-0.113509,0.055621,0.000000,-0.042521,-0.002179,-0.000000
5.190000,1.332842,1.305282,-1.343116,0.291873,0.862565,-0.050511,-0.564404,-1.162269,-0.333165,0.083548,-0.322817,0.642641,2.770899,4.626402,4.066675,-0.113914,0.055586,0.000000,-0.038551,-0.004666,-0.000000
5.200000,1.335733,1.313849,-1.343638,0.286234,0.850927,-0.053810,-0.563430,-1.165266,-0.326537,0.111225,-0.276506,0.682767,2.763771,4.635853,3.956827,-0.114280,0.055527,0.000000,-0.034558,-0.007159,-0.000000
5.210000,1.338567,1.322300,-1.344192,0.280605,0.839261,-0.057041,-0.562180,-1.167799,-0.319512,0.138800,-0.230098,0.721826,2.753251,4.646440,3.833788,-0.114605,0.055442,0.000000,-0.030541,-0.009654,0.000000
5.220000,1.341345,1.330634,-1.344778,0.274991,0.827572,-0.060199,-0.560655,-1.169867,-0.312105,0.166266,-0.183576,0.759505,2.739246,4.658184,3.700099,-0.114890,0.055333,0.000000,-0.026493,-0.012152,-0.000000
5.230000,1.344067,1.338851,-1.345396,0.269393,0.815865,-0.063282,-0.558855,-1.171470,-0.304327,0.193574,-0.136930,0.795794,2.721943,4.671147,3.556128,-0.115135,0.055198,0.000000,-0.022411,-0.014649,-0.000000
5.240000,1.346733,1.346951,-1.346044,0.263815,0.804144,-0.066285,-0.556784,-1.172605,-0.296194,0.220694,-0.090148,0.830594,2.701529,4.685393,3.402246,-0.115339,0.055038,0.000000,-0.018293,-0.017143,-0.000000
5.250000,1.349343,1.354934,-1.346721,0.258258,0.792415,-0.069204,-0.554442,-1.173272,-0.287720,0.247595,-0.043218,0.863807,2.678188,4.700983,3.238822,-0.115501,0.054853,0.000000,-0.014134,-0.019632,-0.000000
5.260000,1.351898,1.362800,-1.347428,0.252727,0.780681,-0.072038,-0.551833,-1.173469,-0.278922,0.274233,0.003855,0.895413,2.652501,4.718501,3.064367,-0.115621,0.054642,0.000000,-0.009933,-0.022112,0.000000
5.270000,1.354398,1.370548,-1.348162,0.247223,0.768947,-0.074782,-0.548958,-1.173195,-0.269818,0.300619,0.051134,0.925149,2.624212,4.737425,2.881335,-0.115699,0.054407,0.000000,-0.005681,-0.024586,0.000000
5.280000,1.356843,1.378179,-1.348923,0.241748,0.757218,-0.077433,-0.545821,-1.172446,-0.260426,0.326709,0.098608,0.953014,2.593460,4.757754,2.690322,-0.115735,0.054147,0.000000,-0.001377,-0.027051,0.000000
5.290000,1.359233,1.385692,-1.349710,0.236307,0.745499,-0.079990,-0.542425,-1.171222,-0.250764,0.352480,0.146294,0.978931,2.560382,4.779486,2.491923,-0.115727,0.053863,0.000000,0.002983,-0.029504,-0.000000
5.300000,1.361569,1.393089,-1.350522,0.230901,0.733795,-0.082448,-0.538773,-1.169519,-0.240854,0.377910,0.194203,1.002829,2.525118,4.802621,2.286735,-0.115675,0.053553,0.000000,0.007401,-0.031944,0.000000
5.310000,1.363851,1.400368,-1.351359,0.225532,0.722111,-0.084806,-0.534868,-1.167337,-0.230714,0.402958,0.242309,1.024695,2.488256,4.828198,2.074079,-0.115578,0.053220,0.000000,0.011876,-0.034367,-0.000000
5.320000,1.366080,1.407531,-1.352218,0.220204,0.710450,-0.087061,-0.530715,-1.164672,-0.220367,0.427648,0.290725,1.044350,2.449429,4.855047,1.855982,-0.115437,0.052862,0.000000,0.016423,-0.036776,0.000000
5.330000,1.368255,1.414577,-1.353100,0.214919,0.698819,-0.089213,-0.526317,-1.161522,-0.209834,0.451940,0.339414,1.061799,2.408718,4.883040,1.633197,-0.115250,0.052479,0.000000,0.021039,-0.039168,0.000000
5.340000,1.370378,1.421508,-1.354002,0.209679,0.687221,-0.091258,-0.521678,-1.157883,-0.199139,0.475816,0.388389,1.077001,2.366207,4.912049,1.406477,-0.115016,0.052073,0.000000,0.025725,-0.041540,-0.000000
5.350000,1.372449,1.428322,-1.354924,0.204486,0.675663,-0.093195,-0.516802,-1.153753,-0.188302,0.499259,0.437658,1.089918,2.321978,4.941944,1.176573,-0.114735,0.051643,0.000000,0.030484,-0.043891,-0.000000
5.360000,1.374468,1.435021,-1.355866,0.199343,0.664148,-0.095023,-0.511694,-1.149130,-0.177348,0.522232,0.487171,1.100544,2.276574,4.974093,0.943729,-0.114406,0.051189,0.000000,0.035313,-0.046217,0.000000
5.370000,1.376436,1.441605,-1.356825,0.194253,0.652682,-0.096742,-0.506359,-1.144009,-0.166299,0.544764,0.537075,1.108810,2.229562,5.006689,0.709268,-0.114028,0.050713,0.000000,0.040226,-0.048522,-0.000000
5.380000,1.378353,1.448075,-1.357800,0.189217,0.641270,-0.098349,-0.500800,-1.138387,-0.155179,0.566818,0.587305,1.114727,2.180968,5.039418,0.474006,-0.113601,0.050213,0.000000,0.045217,-0.050800,-0.000000
5.390000,1.380220,1.454431,-1.358791,0.184238,0.629916,-0.099845,-0.495024,-1.132261,-0.144012,0.588379,0.637862,1.118290,2.130820,5.071970,0.238755,-0.113124,0.049690,0.000000,0.050288,-0.053049,-0.000000
5.400000,1.382038,1.460673,-1.359797,0.179317,0.618626,-0.101229,-0.489035,-1.125629,-0.132821,0.609430,0.688743,1.119505,2.079144,5.104031,0.004332,-0.112595,0.049145,0.000000,0.055437,-0.055269,-0.000000
5.410000,1.383807,1.466803,-1.360815,0.174458,0.607405,-0.102501,-0.482837,-1.118486,-0.121630,0.629940,0.739871,1.118369,2.026390,5.137051,-0.228115,-0.112015,0.048578,0.000000,0.060658,-0.057454,-0.000000
5.420000,1.385528,1.472822,-1.361846,0.169661,0.596258,-0.103662,-0.476438,-1.110830,-0.110462,0.649933,0.791401,1.114935,1.972110,5.168740,-0.458147,-0.111382,0.047989,0.000000,0.065965,-0.059607,-0.000000
5.430000,1.387200,1.478729,-1.362888,0.164930,0.585190,-0.104711,-0.469841,-1.102657,-0.099339,0.669377,0.843239,1.109217,1.916278,5.198574,-0.684990,-0.110695,0.047378,0.000000,0.071349,-0.061723,-0.000000
5.440000,1.388826,1.484526,-1.363940,0.160265,0.574207,-0.105649,-0.463052,-1.093965,-0.088285,0.688254,0.895364,1.101249,1.858868,5.226022,-0.907872,-0.109955,0.046747,0.000000,0.076807,-0.063800,0.000000
5.450000,1.390406,1.490213,-1.365001,0.155669,0.563313,-0.106477,-0.456077,-1.084749,-0.077321,0.706549,0.947750,1.091075,1.799856,5.250559,-1.126018,-0.109159,0.046095,0.000000,0.082336,-0.065835,-0.000000
5.460000,1.391940,1.495792,-1.366069,0.151144,0.552513,-0.107196,-0.448923,-1.075009,-0.066471,0.724231,1.000295,1.078703,1.739572,5.273394,-1.337537,-0.108308,0.045423,0.000000,0.087924,-0.067824,0.000000
5.470000,1.393429,1.501264,-1.367144,0.146691,0.541814,-0.107807,-0.441595,-1.064743,-0.055754,0.741319,1.053126,1.064295,1.677591,5.292050,-1.542911,-0.107400,0.044731,0.000000,0.093582,-0.069767,-0.000000
5.480000,1.394874,1.506629,-1.368225,0.142313,0.531220,-0.108311,-0.434099,-1.053946,-0.045192,0.757777,1.106120,1.047867,1.613845,5.305786,-1.741502,-0.106436,0.044019,0.000000,0.099296,-0.071660,0.000000
5.490000,1.396276,1.511889,-1.369310,0.138010,0.520737,-0.108711,-0.426441,-1.042620,-0.034803,0.773589,1.159223,1.029490,1.548264,5.313862,-1.932675,-0.105414,0.043289,0.000000,0.105060,-0.073500,0.000000
5.500000,1.397635,1.517044,-1.370399,0.133784,0.510370,-0.109008,-0.418629,-1.030762,-0.024608,0.788736,1.212376,1.009240,1.480779,5.315537,-2.115793,-0.104335,0.042541,0.000000,0.110866,-0.075283,-0.000000
5.510000,1.398952,1.522096,-1.371490,0.129638,0.500124,-0.109204,-0.410669,-1.018373,-0.014625,0.803188,1.265453,0.987135,1.411583,5.311505,-2.288510,-0.103197,0.041776,0.000000,0.116699,-0.077006,0.000000
5.520000,1.400228,1.527047,-1.372583,0.125571,0.490004,-0.109301,-0.402568,-1.005453,-0.004871,0.816949,1.318515,0.963424,1.340314,5.299417,-2.452108,-0.102001,0.040993,0.000000,0.122562,-0.078666,-0.000000
5.530000,1.401463,1.531897,-1.373676,0.121587,0.480016,-0.109302,-0.394332,-0.992003,0.004638,0.829987,1.371412,0.938125,1.266871,5.278356,-2.606160,-0.100746,0.040194,0.000000,0.128439,-0.080259,-0.000000
5.540000,1.402660,1.536648,-1.374768,0.117685,0.470166,-0.109209,-0.385971,-0.978026,0.013886,0.842279,1.424049,0.911334,1.191153,5.247408,-2.750238,-0.099432,0.039380,0.000000,0.134316,-0.081782,-0.000000
5.550000,1.403817,1.541301,-1.375860,0.113868,0.460458,-0.109025,-0.377489,-0.963523,0.022860,0.853802,1.476324,0.883155,1.113060,5.205656,-2.883916,-0.098059,0.038551,0.000000,0.140180,-0.083231,-0.000000
5.560000,1.404937,1.545857,-1.376949,0.110136,0.450897,-0.108753,-0.368897,-0.948501,0.031544,0.864526,1.528088,0.853612,1.032651,5.153066,-3.004753,-0.096628,0.037708,0.000000,0.146016,-0.084601,-0.000000
5.570000,1.406020,1.550319,-1.378034,0.106490,0.441489,-0.108395,-0.360202,-0.932964,0.039928,0.874439,1.579303,0.823006,0.949646,5.087733,-3.114581,-0.095139,0.036851,0.000000,0.151813,-0.085889,0.000000
5.580000,1.407067,1.554688,-1.379116,0.102932,0.432239,-0.107955,-0.351411,-0.916917,0.048001,0.883510,1.629797,0.791358,0.863923,5.008634,-3.213219,-0.093592,0.035982,0.000000,0.157552,-0.087091,-0.000000
5.590000,1.408079,1.558964,-1.380193,0.099462,0.423153,-0.107436,-0.342534,-0.900371,0.055752,0.891708,1.679427,0.758780,0.775362,4.914744,-3.300486,-0.091988,0.035102,0.000000,0.163216,-0.088202,0.000000
5.600000,1.409057,1.563151,-1.381265,0.096082,0.414234,-0.106842,-0.333580,-0.883332,0.063174,0.899007,1.728039,0.725387,0.683842,4.805040,-3.376202,-0.090328,0.034211,0.000000,0.168786,-0.089219,-0.000000
5.610000,1.410001,1.567250,-1.382330,0.092791,0.405488,-0.106174,-0.324557,-0.865814,0.070257,0.905370,1.775461,0.691216,0.589376,4.678759,-3.438200,-0.088613,0.033311,0.000000,0.174241,-0.090136,0.000000
5.620000,1.410913,1.571262,-1.383388,0.089591,0.396919,-0.105437,-0.315476,-0.847828,0.076996,0.910778,1.821543,0.656573,0.491693,4.534586,-3.488527,-0.086844,0.032402,0.000000,0.179561,-0.090950,-0.000000
5.630000,1.411793,1.575189,-1.384438,0.086482,0.388532,-0.104635,-0.306345,-0.829388,0.083387,0.915192,1.866090,0.621485,0.390659,4.371463,-3.527247,-0.085022,0.031485,0.000000,0.184725,-0.091656,0.000000
5.640000,1.412643,1.579033,-1.385480,0.083464,0.380333,-0.103771,-0.297175,-0.810512,0.089425,0.918579,1.908906,0.586067,0.286135,4.188335,-3.554420,-0.083150,0.030562,0.000000,0.189708,-0.092249,0.000000
5.650000,1.413463,1.582796,-1.386514,0.080538,0.372324,-0.102848,-0.287977,-0.791216,0.095108,0.920903,1.949786,0.550434,0.177986,3.984147,-3.570110,-0.081229,0.029634,0.000000,0.194487,-0.092725,0.000000
5.660000,1.414254,1.586480,-1.387537,0.077704,0.364510,-0.101870,-0.278761,-0.771523,0.100433,0.922110,1.988514,0.514637,0.066496,3.757876,-3.572721,-0.079261,0.028702,0.000000,0.199037,-0.093077,-0.000000
5.670000,1.415017,1.590087,-1.388551,0.074963,0.356894,-0.100840,-0.269539,-0.751454,0.105400,0.922201,2.024865,0.478943,-0.048944,3.508430,-3.564175,-0.077249,0.027767,0.000000,0.203330,-0.093305,0.000000
5.680000,1.415754,1.593619,-1.389554,0.072314,0.349482,-0.099763,-0.260321,-0.731034,0.110012,0.921117,2.058601,0.443390,-0.168523,3.234747,-3.544738,-0.075195,0.026831,0.000000,0.207341,-0.093402,0.000000
5.690000,1.416464,1.597077,-1.390546,0.069757,0.342275,-0.098641,-0.251120,-0.710292,0.114269,0.918816,2.089476,0.408084,-0.292429,2.935768,-3.514675,-0.073103,0.025894,0.000000,0.211041,-0.093362,-0.000000
