time,x,y,z,vx,vy,vz,ax,ay,az,jx,jy,jz,sx,sy,sz
0.000000,-2.324199,-2.559376,1.416631,-0.018015,-0.003806,0.005154,0.768809,-0.209038,-0.065316,-24.926384,4.218692,0.443768,694.514267,-36.723678,21.763423
0.010000,-2.324344,-2.559424,1.416680,-0.011461,-0.005691,0.004527,0.552521,-0.168621,-0.059826,-18.501924,3.871298,0.650651,592.121237,-32.799632,19.621228
0.020000,-2.324434,-2.559488,1.416722,-0.006767,-0.007189,0.003964,0.395530,-0.131486,-0.052374,-13.049967,3.561822,0.836359,499.926134,-29.138715,17.528727
0.030000,-2.324484,-2.559566,1.416759,-0.003384,-0.008331,0.003485,0.288612,-0.097266,-0.043168,-8.471159,3.287669,1.001397,417.403622,-25.734194,15.487785
0.040000,-2.324505,-2.559654,1.416792,-0.000855,-0.009143,0.003106,0.223510,-0.065623,-0.032413,-4.671403,3.046306,1.146292,344.028367,-22.579335,13.500268
0.050000,-2.324503,-2.559748,1.416822,0.001201,-0.009651,0.002842,0.192883,-0.036239,-0.020308,-1.561852,2.835272,1.271587,279.275034,-19.667404,11.568041
0.060000,-2.324481,-2.559846,1.416849,0.003096,-0.009875,0.002704,0.190252,-0.008824,-0.007045,0.941086,2.652171,1.377844,222.618287,-16.991666,9.692969
0.070000,-2.324440,-2.559945,1.416876,0.005080,-0.009833,0.002704,0.209945,0.016890,0.007188,2.915751,2.494674,1.465643,173.532793,-14.545388,7.876919
0.080000,-2.324379,-2.560042,1.416904,0.007353,-0.009542,0.002850,0.247050,0.041147,0.022208,4.435228,2.360521,1.535585,131.493217,-12.321836,6.121756
0.090000,-2.324292,-2.560135,1.416934,0.010065,-0.009014,0.003150,0.297359,0.064170,0.037842,5.567351,2.247517,1.588288,95.974223,-10.314274,4.429346
0.100000,-2.324175,-2.560221,1.416967,0.013332,-0.008262,0.003609,0.357315,0.086161,0.053919,6.374697,2.153538,1.624387,66.450477,-8.515970,2.801553
0.110000,-2.324023,-2.560299,1.417007,0.017234,-0.007294,0.004229,0.423962,0.107298,0.070277,6.914593,2.076523,1.644540,42.396645,-6.920188,1.240245
0.120000,-2.323828,-2.560366,1.417053,0.021825,-0.006118,0.005015,0.494890,0.127741,0.086759,7.239112,2.014481,1.649420,23.287390,-5.520195,-0.252715
0.130000,-2.323584,-2.560421,1.417107,0.027139,-0.004741,0.005965,0.568183,0.147631,0.103216,7.395072,1.965489,1.639720,8.597379,-4.309257,-1.675459
0.140000,-2.323283,-2.560461,1.417172,0.033192,-0.003167,0.007078,0.642368,0.167088,0.119507,7.424039,1.927688,1.616151,-2.198723,-3.280640,-3.026122
0.150000,-2.322918,-2.560484,1.417249,0.039986,-0.001400,0.008354,0.716362,0.186216,0.135496,7.362326,1.899291,1.579444,-9.626251,-2.427609,-4.302840
0.160000,-2.322481,-2.560488,1.417340,0.047516,0.000557,0.009787,0.789417,0.205100,0.151055,7.240992,1.878573,1.530347,-14.210539,-1.743431,-5.503746
0.170000,-2.321965,-2.560472,1.417446,0.055770,0.002701,0.011373,0.861070,0.223807,0.166064,7.085842,1.863882,1.469628,-16.476924,-1.221371,-6.626974
0.180000,-2.321363,-2.560433,1.417568,0.064732,0.005032,0.013106,0.931090,0.242392,0.180411,6.917428,1.853628,1.398073,-16.950739,-0.854694,-7.670660
0.190000,-2.320668,-2.560371,1.417708,0.074386,0.007549,0.014979,0.999426,0.260890,0.193992,6.751051,1.846292,1.316486,-16.157318,-0.636668,-8.632937
0.200000,-2.319873,-2.560282,1.417868,0.084715,0.010250,0.016983,1.066152,0.279323,0.206710,6.596755,1.840422,1.225692,-14.621998,-0.560558,-9.511939
0.210000,-2.318972,-2.560165,1.418048,0.095656,0.013133,0.019110,1.133218,0.297767,0.218477,6.625290,1.840986,1.126510,-17.061805,-0.780156,-10.305255
0.220000,-2.317958,-2.560018,1.418251,0.107316,0.016203,0.021349,1.198580,0.316133,0.229215,6.443330,1.831622,1.019852,-19.297114,-1.108545,-11.011633
0.230000,-2.316824,-2.559840,1.418476,0.119621,0.019456,0.023690,1.262013,0.334387,0.238852,6.239989,1.818541,0.906573,-21.339989,-1.519335,-11.629274
0.240000,-2.315563,-2.559629,1.418725,0.132550,0.022890,0.026122,1.323314,0.352489,0.247328,6.017131,1.801049,0.787568,-23.202498,-1.986135,-12.156379
0.250000,-2.314171,-2.559382,1.418998,0.146080,0.026505,0.028633,1.382297,0.370392,0.254588,5.776500,1.778719,0.663753,-24.896707,-2.482556,-12.591150
0.260000,-2.312640,-2.559098,1.419298,0.160186,0.030299,0.031210,1.438825,0.387971,0.260580,5.522897,1.744382,0.535212,-26.514978,-2.805275,-12.910396
0.270000,-2.310965,-2.558775,1.419623,0.174846,0.034266,0.033840,1.492703,0.405269,0.265283,5.250298,1.714720,0.404901,-27.979249,-3.126498,-13.136329
0.280000,-2.309141,-2.558412,1.419975,0.190031,0.038403,0.036511,1.543785,0.422255,0.268673,4.963818,1.681873,0.272794,-29.291754,-3.441501,-13.269772
0.290000,-2.307163,-2.558007,1.420353,0.205712,0.042710,0.039209,1.591938,0.438896,0.270736,4.664962,1.645926,0.139811,-30.454728,-3.745557,-13.311544
0.300000,-2.305025,-2.557557,1.420759,0.221860,0.047180,0.041922,1.637048,0.455163,0.271469,4.355214,1.607014,0.006866,-31.470405,-4.033942,-13.262467
0.310000,-2.302724,-2.557063,1.421192,0.238443,0.051812,0.044635,1.678998,0.471007,0.270866,4.034820,1.563425,-0.126070,-32.310273,-4.254186,-13.099829
0.320000,-2.300255,-2.556521,1.421651,0.255429,0.056600,0.047335,1.717718,0.486425,0.268954,3.708100,1.519863,-0.255894,-33.011077,-4.455154,-12.850865
0.330000,-2.297614,-2.555930,1.422138,0.272786,0.061539,0.050009,1.753139,0.501398,0.265758,3.375042,1.474383,-0.382812,-33.578815,-4.637967,-12.519277
0.340000,-2.294798,-2.555289,1.422651,0.290481,0.066626,0.052646,1.785202,0.515907,0.261310,3.036947,1.427160,-0.506016,-34.019487,-4.803747,-12.108768
0.350000,-2.291804,-2.554597,1.423191,0.308479,0.071856,0.055232,1.813865,0.529936,0.255653,2.695056,1.378361,-0.624736,-34.339092,-4.953614,-11.623040
0.360000,-2.288628,-2.553852,1.423756,0.326747,0.077223,0.057755,1.839098,0.543469,0.248824,2.350838,1.328103,-0.739072,-34.550935,-5.087829,-11.044737
0.370000,-2.285268,-2.553052,1.424346,0.345249,0.082723,0.060205,1.860877,0.556493,0.240892,2.004730,1.276611,-0.846354,-34.652814,-5.208479,-10.401198
0.380000,-2.281722,-2.552197,1.424960,0.363953,0.088351,0.062570,1.879191,0.568997,0.231920,1.658131,1.223975,-0.946900,-34.649833,-5.316790,-9.698704
0.390000,-2.277988,-2.551285,1.425597,0.382822,0.094101,0.064840,1.894041,0.580969,0.221978,1.312066,1.170312,-1.040152,-34.547095,-5.413988,-8.943537
0.400000,-2.274065,-2.550314,1.426256,0.401822,0.099969,0.067006,1.905437,0.592400,0.211142,0.967505,1.115728,-1.125616,-34.349705,-5.501298,-8.141977
0.410000,-2.269952,-2.549285,1.426937,0.420919,0.105948,0.069060,1.913403,0.603283,0.199489,0.625729,1.060485,-1.203267,-34.071835,-5.584245,-7.289982
0.420000,-2.265647,-2.548195,1.427637,0.440079,0.112032,0.070994,1.917963,0.613607,0.187106,0.286758,1.004262,-1.271768,-33.708410,-5.659232,-6.405421
0.430000,-2.261150,-2.547044,1.428356,0.459267,0.118218,0.072800,1.919152,0.623366,0.174083,-0.048167,0.947325,-1.331292,-33.263424,-5.726957,-5.495838
0.440000,-2.256461,-2.545830,1.429093,0.478450,0.124498,0.074473,1.917015,0.632552,0.160511,-0.378252,0.889744,-1.381626,-32.740872,-5.788123,-4.568779
0.450000,-2.251581,-2.544554,1.429845,0.497596,0.130867,0.076009,1.911605,0.641159,0.146482,-0.702740,0.831582,-1.422634,-32.144747,-5.843428,-3.631788
0.460000,-2.246510,-2.543213,1.430612,0.516672,0.137319,0.077402,1.902983,0.649183,0.132090,-1.020769,0.773035,-1.454161,-31.482723,-5.897174,-2.694775
0.470000,-2.241248,-2.541807,1.431393,0.535645,0.143849,0.078650,1.891213,0.656618,0.117430,-1.332010,0.713815,-1.476440,-30.754663,-5.946018,-1.762632
0.480000,-2.235797,-2.540336,1.432185,0.554486,0.150449,0.079750,1.876368,0.663458,0.102593,-1.635654,0.654131,-1.489454,-29.964109,-5.990221,-0.842613
0.490000,-2.230159,-2.538798,1.432987,0.573163,0.157116,0.080701,1.858527,0.669699,0.087671,-1.931095,0.594026,-1.493357,-29.114607,-6.030042,0.058027
0.500000,-2.224335,-2.537193,1.433798,0.591647,0.163841,0.081503,1.837776,0.675337,0.072755,-2.217762,0.533543,-1.488382,-28.209697,-6.065740,0.932031
0.510000,-2.218327,-2.535521,1.434617,0.609909,0.170620,0.082156,1.814203,0.680370,0.057938,-2.495123,0.472813,-1.474280,-27.252756,-6.099831,1.758250
0.520000,-2.212137,-2.533781,1.435441,0.627922,0.177447,0.082662,1.787906,0.684792,0.043296,-2.762663,0.411660,-1.452728,-26.247516,-6.130041,2.545024
0.530000,-2.205769,-2.531972,1.436269,0.645658,0.184314,0.083023,1.758984,0.688602,0.028909,-3.019924,0.350225,-1.423529,-25.197539,-6.156354,3.286800
0.540000,-2.199225,-2.530094,1.437101,0.663093,0.191217,0.083242,1.727543,0.691796,0.014850,-3.266477,0.288546,-1.387161,-24.106390,-6.178751,3.978022
0.550000,-2.192508,-2.528147,1.437934,0.680201,0.198148,0.083322,1.693692,0.694372,0.001188,-3.501927,0.226663,-1.344156,-22.977632,-6.197217,4.613137
0.560000,-2.185622,-2.526131,1.438767,0.696959,0.205102,0.083267,1.657543,0.696329,-0.012004,-3.725932,0.164668,-1.294236,-21.814415,-6.213072,5.164687
0.570000,-2.178570,-2.524045,1.439599,0.713345,0.212073,0.083083,1.619212,0.697665,-0.024680,-3.938132,0.102475,-1.240099,-20.620766,-6.224797,5.651703
0.580000,-2.171357,-2.521890,1.440428,0.729337,0.219053,0.082775,1.578820,0.698379,-0.036791,-4.138258,0.040187,-1.181427,-19.400301,-6.232211,6.071314
0.590000,-2.163985,-2.519664,1.441254,0.744915,0.226038,0.082349,1.536488,0.698469,-0.048295,-4.326061,-0.022154,-1.118907,-18.156633,-6.235132,6.420647
0.600000,-2.156460,-2.517369,1.442075,0.760060,0.233021,0.081811,1.492341,0.697936,-0.059158,-4.501325,-0.084500,-1.053258,-16.893376,-6.233381,6.696830
0.610000,-2.148785,-2.515004,1.442890,0.774756,0.239995,0.081168,1.446505,0.696779,-0.069342,-4.663786,-0.146768,-0.984227,-15.616401,-6.227726,6.871813
0.620000,-2.140966,-2.512569,1.443698,0.788985,0.246954,0.080426,1.399108,0.695000,-0.078838,-4.813511,-0.208995,-0.914950,-14.326790,-6.216919,6.970986
0.630000,-2.133007,-2.510065,1.444498,0.802733,0.253893,0.079593,1.350278,0.692600,-0.087639,-4.950290,-0.271088,-0.845060,-13.027880,-6.200664,6.994558
0.640000,-2.124913,-2.507491,1.445289,0.815986,0.260804,0.078676,1.300145,0.689579,-0.095740,-5.074048,-0.332989,-0.775310,-11.723008,-6.178663,6.942740
0.650000,-2.116689,-2.504849,1.446071,0.828732,0.267682,0.077681,1.248841,0.685941,-0.103148,-5.184742,-0.394641,-0.706455,-10.415514,-6.150619,6.815744
0.660000,-2.108340,-2.502138,1.446843,0.840960,0.274521,0.076615,1.196497,0.681688,-0.109864,-5.282128,-0.455943,-0.638308,-9.114618,-6.117189,6.590114
0.670000,-2.099872,-2.499359,1.447603,0.852659,0.281314,0.075486,1.143241,0.676823,-0.115923,-5.366783,-0.516920,-0.573836,-7.817054,-6.077004,6.292624
0.680000,-2.091289,-2.496512,1.448352,0.863822,0.288055,0.074299,1.089204,0.671351,-0.121352,-5.438489,-0.577459,-0.512685,-6.525439,-6.029652,5.926384
0.690000,-2.082597,-2.493598,1.449089,0.874441,0.294739,0.073060,1.034515,0.665276,-0.126190,-5.497320,-0.637488,-0.455527,-5.242391,-5.974717,5.494500
0.700000,-2.073802,-2.490617,1.449813,0.884510,0.301359,0.071777,0.979300,0.658603,-0.130478,-5.543374,-0.696927,-0.403004,-3.970527,-5.911787,5.000083
0.710000,-2.064909,-2.487571,1.450524,0.894025,0.307909,0.070452,0.923693,0.651340,-0.134259,-5.576448,-0.755652,-0.354999,-2.720772,-5.841536,4.427941
0.720000,-2.055923,-2.484459,1.451222,0.902983,0.314384,0.069093,0.867813,0.643493,-0.137598,-5.597470,-0.813679,-0.313808,-1.486419,-5.762328,3.801723
0.730000,-2.046851,-2.481283,1.451906,0.911381,0.320777,0.067702,0.811784,0.635069,-0.140557,-5.606233,-0.870867,-0.279127,-0.269067,-5.673615,3.126777
0.740000,-2.037698,-2.478044,1.452576,0.919219,0.327083,0.066283,0.755729,0.626078,-0.143204,-5.602913,-0.927118,-0.251417,0.929682,-5.574851,2.408455
0.750000,-2.028469,-2.474742,1.453232,0.926496,0.333297,0.064838,0.699766,0.616530,-0.145610,-5.587706,-0.982329,-0.231085,2.108228,-5.465487,1.652104
0.760000,-2.019170,-2.471378,1.453873,0.933215,0.339412,0.063371,0.644017,0.606436,-0.147847,-5.560503,-1.036350,-0.218064,3.256932,-5.346005,0.852479
0.770000,-2.009806,-2.467954,1.454499,0.939377,0.345424,0.061882,0.588593,0.595807,-0.149999,-5.522283,-1.089163,-0.213649,4.383218,-5.214704,0.026823
0.780000,-2.000384,-2.464470,1.455110,0.944988,0.351326,0.060371,0.533608,0.584657,-0.152148,-5.472916,-1.140602,-0.217593,5.486469,-5.070909,-0.818219
0.790000,-1.990908,-2.460928,1.455706,0.950051,0.357115,0.058838,0.479172,0.573000,-0.154379,-5.412633,-1.190538,-0.230056,6.566070,-4.913948,-1.676000
0.800000,-1.981385,-2.457328,1.456287,0.954574,0.362785,0.057283,0.425391,0.560852,-0.156778,-5.341675,-1.238835,-0.251133,7.621405,-4.743148,-2.539873
0.810000,-1.971819,-2.453673,1.456852,0.958562,0.368330,0.055702,0.372375,0.548230,-0.159429,-5.260098,-1.285336,-0.280768,8.647068,-4.558248,-3.405299
0.820000,-1.962215,-2.449962,1.457401,0.962024,0.373748,0.054093,0.320223,0.535152,-0.162422,-5.168603,-1.329931,-0.319120,9.647820,-4.358112,-4.263265
0.830000,-1.952580,-2.446198,1.457934,0.964969,0.379032,0.052452,0.269036,0.521638,-0.165840,-5.067225,-1.372445,-0.365985,10.623632,-4.142015,-5.106866
0.840000,-1.942917,-2.442382,1.458450,0.967408,0.384179,0.050774,0.218911,0.507710,-0.169769,-4.956213,-1.412715,-0.421186,11.574475,-3.909233,-5.929199
0.850000,-1.933233,-2.438515,1.458949,0.969351,0.389185,0.049055,0.169943,0.493392,-0.174291,-4.835819,-1.450572,-0.484475,12.500320,-3.659043,-6.723357
0.860000,-1.923532,-2.434599,1.459431,0.970811,0.394046,0.047286,0.122224,0.478707,-0.179487,-4.706309,-1.485876,-0.555774,13.401613,-3.389695,-7.476425
0.870000,-1.913819,-2.430635,1.459895,0.971800,0.398758,0.045463,0.075846,0.463684,-0.185431,-4.567891,-1.518349,-0.634135,14.277792,-3.101616,-8.188246
0.880000,-1.904098,-2.426624,1.460340,0.972333,0.403318,0.043575,0.030895,0.448350,-0.192193,-4.420837,-1.547844,-0.719381,15.128768,-2.794207,-8.852650
0.890000,-1.894373,-2.422569,1.460766,0.972423,0.407724,0.041616,-0.012543,0.432737,-0.199840,-4.265400,-1.574167,-0.811009,15.954455,-2.466872,-9.463467
0.900000,-1.884651,-2.418470,1.461172,0.972087,0.411972,0.039575,-0.054385,0.416878,-0.208432,-4.101833,-1.597113,-0.908451,16.754766,-2.119010,-10.014529
0.910000,-1.874933,-2.414330,1.461557,0.971341,0.416061,0.037444,-0.094556,0.400806,-0.218032,-3.930624,-1.616609,-1.011601,17.535538,-1.746676,-10.486505
0.920000,-1.865225,-2.410149,1.461921,0.970202,0.419988,0.035211,-0.132972,0.384559,-0.228679,-3.751474,-1.632125,-1.118534,18.290033,-1.353030,-10.888000
0.930000,-1.855530,-2.405931,1.462261,0.968688,0.423752,0.032867,-0.169560,0.368177,-0.240415,-3.564914,-1.643598,-1.229111,19.017437,-0.937884,-11.214456
0.940000,-1.845852,-2.401675,1.462577,0.966817,0.427351,0.030399,-0.204247,0.351701,-0.253271,-3.371219,-1.650811,-1.342558,19.716939,-0.501049,-11.461316
0.950000,-1.836195,-2.397384,1.462869,0.964610,0.430785,0.027797,-0.236962,0.335175,-0.267273,-3.170671,-1.653546,-1.458057,20.387724,-0.042337,-11.624023
0.960000,-1.826561,-2.393060,1.463133,0.962085,0.434055,0.025050,-0.267642,0.318643,-0.282444,-2.963934,-1.651836,-1.575501,21.038369,0.444803,-11.678854
0.970000,-1.816954,-2.388704,1.463369,0.959264,0.437159,0.022145,-0.296219,0.302155,-0.298783,-2.750428,-1.644862,-1.692186,21.657523,0.953417,-11.642765
0.980000,-1.807377,-2.384317,1.463575,0.956168,0.440098,0.019071,-0.322631,0.285763,-0.316285,-2.530895,-1.632698,-1.808046,22.243221,1.482914,-11.513543
0.990000,-1.797832,-2.379902,1.463750,0.952819,0.442874,0.015815,-0.346818,0.269519,-0.334938,-2.305681,-1.615137,-1.922139,22.793503,2.032703,-11.288979
1.000000,-1.788321,-2.375460,1.463891,0.949239,0.445489,0.012368,-0.368727,0.253479,-0.354719,-2.075150,-1.591978,-2.033501,23.306404,2.602193,-10.966862
1.010000,-1.778848,-2.370993,1.463997,0.945452,0.447945,0.008718,-0.388309,0.237695,-0.375606,-1.840041,-1.563394,-2.142088,23.788974,3.200021,-10.521142
1.020000,-1.769413,-2.366502,1.464065,0.941481,0.450244,0.004853,-0.405512,0.222231,-0.397544,-1.599914,-1.528332,-2.244658,24.229134,3.815238,-9.976366
1.030000,-1.760019,-2.361989,1.464093,0.937350,0.452391,0.000763,-0.420293,0.207149,-0.420479,-1.355610,-1.487037,-2.341287,24.623820,4.446123,-9.333243
1.040000,-1.750666,-2.357455,1.464079,0.933083,0.454389,-0.003560,-0.432612,0.192512,-0.444347,-1.107600,-1.439363,-2.430997,24.969964,5.090955,-8.592481
1.050000,-1.741357,-2.352901,1.464021,0.928706,0.456243,-0.008126,-0.442434,0.178384,-0.469073,-0.856383,-1.385177,-2.512814,25.264501,5.748014,-7.754789
1.060000,-1.732093,-2.348330,1.463916,0.924243,0.457958,-0.012944,-0.449732,0.164826,-0.494585,-0.602647,-1.324801,-2.586826,25.508274,6.426523,-6.794261
1.070000,-1.722873,-2.343743,1.463761,0.919720,0.459542,-0.018020,-0.454480,0.151910,-0.520776,-0.346586,-1.257111,-2.649580,25.693829,7.112476,-5.741478
1.080000,-1.713698,-2.339140,1.463554,0.915162,0.460999,-0.023361,-0.456659,0.139706,-0.547540,-0.088976,-1.182537,-2.701361,25.817621,7.802812,-4.600408
1.090000,-1.704569,-2.334523,1.463293,0.910595,0.462338,-0.028972,-0.456257,0.128283,-0.574764,0.169549,-1.101050,-2.741307,25.876104,8.494470,-3.375018
1.100000,-1.695486,-2.329893,1.462974,0.906046,0.463567,-0.034857,-0.453267,0.117708,-0.602324,0.428317,-1.012653,-2.768594,25.865735,9.184388,-2.069276
1.110000,-1.686448,-2.325252,1.462595,0.901539,0.464696,-0.041019,-0.447690,0.108048,-0.630102,0.686837,-0.917788,-2.783484,25.777537,9.879857,-0.660732
1.120000,-1.677455,-2.320600,1.462153,0.897100,0.465732,-0.047459,-0.439535,0.099376,-0.657945,0.943859,-0.815549,-2.782757,25.614061,10.566196,0.816996
1.130000,-1.668506,-2.315938,1.461645,0.892756,0.466687,-0.054178,-0.428819,0.091760,-0.685707,1.198858,-0.706509,-2.766937,25.372429,11.239078,2.356705
1.140000,-1.659600,-2.311266,1.461068,0.888532,0.467571,-0.061173,-0.415567,0.085268,-0.713232,1.451038,-0.590826,-2.735440,25.049759,11.894173,3.951193
1.150000,-1.650735,-2.306586,1.460420,0.884453,0.468396,-0.068441,-0.399810,0.079965,-0.740362,1.699573,-0.468699,-2.687755,24.643173,12.527152,5.593260
1.160000,-1.641910,-2.301898,1.459699,0.880544,0.469174,-0.075978,-0.381583,0.075911,-0.766941,1.944283,-0.340628,-2.624307,24.132831,13.140180,7.297590
1.170000,-1.633123,-2.297203,1.458900,0.876830,0.469919,-0.083777,-0.360943,0.073172,-0.792790,2.182695,-0.206291,-2.542678,23.534889,13.721640,9.032413
1.180000,-1.624373,-2.292500,1.458022,0.873333,0.470642,-0.091831,-0.337951,0.071804,-0.817736,2.414686,-0.066318,-2.443590,22.848545,14.266408,10.787849
1.190000,-1.615656,-2.287790,1.457063,0.870078,0.471359,-0.100128,-0.312674,0.071863,-0.841603,2.639369,0.078898,-2.326886,22.072996,14.769361,12.554015
1.200000,-1.606970,-2.283073,1.456019,0.867087,0.472085,-0.108659,-0.285191,0.073398,-0.864215,2.855846,0.228913,-2.192507,21.207437,15.225376,14.321028
1.210000,-1.598313,-2.278348,1.454889,0.864381,0.472833,-0.117408,-0.255576,0.076456,-0.885400,3.064260,0.383279,-2.040972,20.224652,15.628130,16.091044
1.220000,-1.589682,-2.273616,1.453670,0.861982,0.473619,-0.126361,-0.223940,0.081076,-0.904976,3.261224,0.541339,-1.871291,19.153487,15.973845,17.840671
1.230000,-1.581073,-2.268876,1.452361,0.859909,0.474459,-0.135501,-0.190389,0.087294,-0.922768,3.447044,0.702550,-1.684264,17.996373,16.257544,19.558551
1.240000,-1.572482,-2.264127,1.450959,0.858180,0.475370,-0.144810,-0.155039,0.095136,-0.938605,3.620873,0.866266,-1.480264,16.755742,16.474250,21.233330
1.250000,-1.563908,-2.259368,1.449464,0.856813,0.476368,-0.154266,-0.118014,0.104625,-0.952318,3.781888,1.031795,-1.259779,15.434024,16.618986,22.853651
1.260000,-1.555345,-2.254599,1.447874,0.855825,0.477468,-0.163849,-0.079432,0.115779,-0.963746,3.930596,1.198737,-1.023257,14.000694,16.678007,24.404284
1.270000,-1.546790,-2.249818,1.446187,0.855229,0.478689,-0.173533,-0.039451,0.128600,-0.972733,4.063133,1.365477,-0.771776,12.495177,16.656178,25.878222
1.280000,-1.538239,-2.245025,1.444403,0.855040,0.480046,-0.183295,0.001779,0.143086,-0.979133,4.180281,1.531578,-0.505984,10.923939,16.549597,27.264584
1.290000,-1.529688,-2.240217,1.442521,0.855268,0.481556,-0.193107,0.044101,0.159227,-0.982808,4.281414,1.696173,-0.226812,9.293449,16.354360,28.552489
1.300000,-1.521132,-2.235393,1.440541,0.855925,0.483236,-0.202941,0.087352,0.177002,-0.983628,4.365974,1.858356,0.064701,7.610172,16.066563,29.731056
1.310000,-1.512568,-2.230552,1.438462,0.857018,0.485101,-0.212770,0.131370,0.196402,-0.981466,4.434078,2.018949,0.368351,5.865046,15.637693,30.765578
1.320000,-1.503990,-2.225690,1.436285,0.858554,0.487168,-0.222561,0.175975,0.217365,-0.976229,4.483841,2.172786,0.680649,4.081969,15.113920,31.671917
1.330000,-1.495395,-2.220808,1.434011,0.860539,0.489453,-0.232284,0.220987,0.239839,-0.967826,4.515619,2.320916,1.001336,2.269312,14.496803,32.442108
1.340000,-1.486778,-2.215901,1.431640,0.862974,0.491970,-0.241906,0.266226,0.263761,-0.956179,4.529157,2.462416,1.329011,0.435443,13.787903,33.068186
1.350000,-1.478134,-2.210967,1.429173,0.865863,0.494733,-0.251396,0.311509,0.289062,-0.941227,4.524285,2.596374,1.662192,-1.411268,12.988779,33.542188
1.360000,-1.469459,-2.206005,1.426613,0.869204,0.497755,-0.260720,0.356652,0.315682,-0.922904,4.501066,2.723838,2.000988,-3.266222,12.051941,33.814039
1.370000,-1.460749,-2.201011,1.423960,0.872995,0.501050,-0.269844,0.401469,0.343506,-0.901201,4.459143,2.839332,2.339810,-5.116820,11.034003,33.923041
1.380000,-1.451998,-2.195983,1.421216,0.877232,0.504629,-0.278733,0.445773,0.372433,-0.876107,4.398773,2.944273,2.678897,-6.954230,9.942532,33.866387
1.390000,-1.443203,-2.190918,1.418386,0.881908,0.508502,-0.287354,0.489383,0.402354,-0.847628,4.320132,3.037963,3.016577,-8.769623,8.785092,33.641270
1.400000,-1.434358,-2.185812,1.415470,0.887017,0.512679,-0.295674,0.532116,0.433153,-0.815786,4.223484,3.119780,3.351151,-10.554168,7.569249,33.244881
1.410000,-1.425461,-2.180663,1.412473,0.892547,0.517167,-0.303660,0.573792,0.464716,-0.780599,4.109034,3.189920,3.682864,-12.295327,6.283818,32.624650
1.420000,-1.416506,-2.175468,1.409398,0.898488,0.521975,-0.311276,0.614239,0.496908,-0.742152,3.977572,3.246157,4.005297,-13.988431,4.957411,31.833626
1.430000,-1.407490,-2.170223,1.406249,0.904827,0.527107,-0.318492,0.653288,0.529595,-0.700523,3.829454,3.288965,4.318978,-15.625104,3.599888,30.875095
1.440000,-1.398408,-2.164924,1.403030,0.911549,0.532568,-0.325276,0.690775,0.562641,-0.655807,3.665286,3.318083,4.622251,-17.196969,2.221112,29.752344
1.450000,-1.389258,-2.159570,1.399745,0.918637,0.538361,-0.331598,0.726543,0.595910,-0.608118,3.485758,3.333349,4.913489,-18.695651,0.830943,28.468657
1.460000,-1.380034,-2.154156,1.396400,0.926074,0.544486,-0.337430,0.760433,0.629258,-0.557562,3.290852,3.334388,5.192961,-20.092750,-0.552935,26.980277
1.470000,-1.370735,-2.148679,1.392998,0.933839,0.550946,-0.342741,0.792315,0.662552,-0.504311,3.083301,3.321966,5.454699,-21.402365,-1.929441,25.343294
1.480000,-1.361356,-2.143136,1.389547,0.941913,0.557737,-0.347507,0.822057,0.695652,-0.448525,2.863116,3.295853,5.699362,-22.618570,-3.289671,23.566754
1.490000,-1.351896,-2.137523,1.386050,0.950273,0.564858,-0.351704,0.849538,0.728424,-0.390385,2.631261,3.256256,5.925599,-23.735442,-4.624723,21.659705
1.500000,-1.342350,-2.131838,1.382515,0.958896,0.572304,-0.355308,0.874647,0.760733,-0.330079,2.388758,3.203472,6.132151,-24.747055,-5.925692,19.631192
1.510000,-1.332717,-2.126076,1.378946,0.967758,0.580071,-0.358299,0.897268,0.792437,-0.267797,2.135475,3.136604,6.319189,-25.616805,-7.151297,17.456410
1.520000,-1.322994,-2.120235,1.375351,0.976833,0.588151,-0.360658,0.917329,0.823425,-0.203769,1.875430,3.059160,6.482460,-26.373205,-8.328978,15.182402
1.530000,-1.313180,-2.114312,1.371735,0.986096,0.596536,-0.362370,0.934753,0.853581,-0.138225,1.608396,2.970200,6.622550,-27.014086,-9.453795,12.822360
1.540000,-1.303272,-2.108304,1.368105,0.995519,0.605219,-0.363419,0.949478,0.882793,-0.071398,1.335541,2.870277,6.738664,-27.537280,-10.520811,10.389477
1.550000,-1.293269,-2.102207,1.364469,1.005076,0.614189,-0.363794,0.961449,0.910952,-0.003534,1.058050,2.759993,6.830141,-27.940620,-11.525086,7.896942
1.560000,-1.283170,-2.096019,1.360832,1.014739,0.623435,-0.363487,0.970610,0.937947,0.065125,0.775566,2.638741,6.896846,-28.182320,-12.429844,5.347897
1.570000,-1.272974,-2.089737,1.357201,1.024479,0.632944,-0.362490,0.976954,0.963698,0.134318,0.493033,2.510204,6.937440,-28.304681,-13.265883,2.766816
1.580000,-1.262680,-2.083359,1.353584,1.034269,0.642704,-0.360800,0.980469,0.988124,0.203787,0.209862,2.373655,6.952124,-28.310386,-14.032162,0.168120
1.590000,-1.252288,-2.076882,1.349988,1.044079,0.652702,-0.358414,0.981153,1.011147,0.273273,-0.072795,2.229797,6.940792,-28.202119,-14.727641,-2.433767
1.600000,-1.241799,-2.070305,1.346418,1.053882,0.662922,-0.355335,0.979018,1.032698,0.342516,-0.353810,2.079342,6.903486,-27.982562,-15.351281,-5.024423
1.610000,-1.231211,-2.063623,1.342883,1.063651,0.673351,-0.351565,0.974073,1.052703,0.411251,-0.633303,1.921948,6.839825,-27.623596,-15.875122,-7.575165
1.620000,-1.220526,-2.056837,1.339389,1.073355,0.683971,-0.347112,0.966366,1.071121,0.479229,-0.907316,1.760873,6.751474,-27.162480,-16.328339,-10.087577
1.630000,-1.209744,-2.049943,1.335943,1.082969,0.694768,-0.341984,0.955943,1.087906,0.546198,-1.176234,1.595610,6.638243,-26.605667,-16.713189,-12.548984
1.640000,-1.198867,-2.042941,1.332552,1.092465,0.705724,-0.336192,0.942861,1.103021,0.611912,-1.439132,1.426830,6.500706,-25.959613,-17.031927,-14.946709
1.650000,-1.187895,-2.035828,1.329222,1.101818,0.716823,-0.329751,0.927184,1.116433,0.676133,-1.695150,1.255184,6.339564,-25.230774,-17.286811,-17.268075
1.660000,-1.176831,-2.028604,1.325959,1.111001,0.728047,-0.322675,0.908978,1.128111,0.738614,-1.944030,1.080703,6.154368,-24.412044,-17.465051,-19.468247
1.670000,-1.165676,-2.021267,1.322770,1.119989,0.739379,-0.314985,0.888332,1.138042,0.799149,-2.183769,0.905403,5.949089,-23.525099,-17.585791,-21.570646
1.680000,-1.154432,-2.013816,1.319661,1.128759,0.750802,-0.306699,0.865333,1.146216,0.857527,-2.414332,0.729166,5.723310,-22.578053,-17.653129,-23.566534
1.690000,-1.143101,-2.006251,1.316638,1.137288,0.762298,-0.297842,0.840077,1.152624,0.913550,-2.635157,0.552505,5.478142,-21.579022,-17.671163,-25.447173
1.700000,-1.131687,-1.998570,1.313706,1.145554,0.773849,-0.288437,0.812664,1.157266,0.967030,-2.845766,0.375893,5.214780,-20.536121,-17.643991,-27.203826
1.710000,-1.120191,-1.990774,1.310871,1.153535,0.785437,-0.278510,0.783200,1.160143,1.017772,-3.045548,0.199691,4.932914,-19.462825,-17.573914,-28.787502
1.720000,-1.108617,-1.982861,1.308138,1.161211,0.797046,-0.268090,0.751789,1.161263,1.065637,-3.234689,0.024457,4.637688,-18.361234,-17.467049,-30.234644
1.730000,-1.096968,-1.974833,1.305511,1.168564,0.808657,-0.257207,0.718543,1.160636,1.110480,-3.412703,-0.149542,4.328689,-17.238805,-17.327712,-31.541442
1.740000,-1.085247,-1.966688,1.302995,1.175576,0.820253,-0.245891,0.683573,1.158277,1.152170,-3.579420,-0.322003,4.007340,-16.102998,-17.160223,-32.704086
1.750000,-1.073458,-1.958428,1.300594,1.182230,0.831816,-0.234175,0.646993,1.154202,1.190591,-3.734743,-0.492667,3.675101,-14.961273,-16.968900,-33.718769
1.760000,-1.061604,-1.950052,1.298313,1.188511,0.843331,-0.222090,0.608927,1.148434,1.225624,-3.877702,-0.661030,3.331903,-13.845064,-16.765282,-34.542082
1.770000,-1.049689,-1.941561,1.296154,1.194404,0.854779,-0.209673,0.569476,1.140989,1.257204,-4.010595,-0.827597,2.982994,-12.734918,-16.545583,-35.214662
1.780000,-1.037717,-1.932957,1.294120,1.199896,0.866145,-0.196958,0.528751,1.131889,1.285264,-4.132435,-0.991900,2.628109,-11.635357,-16.313236,-35.737549
1.790000,-1.025692,-1.924239,1.292215,1.204975,0.877412,-0.183980,0.486864,1.121159,1.309751,-4.243352,-1.153831,2.268739,-10.550905,-16.071676,-36.111782
1.800000,-1.013619,-1.915409,1.290441,1.209630,0.888563,-0.170775,0.443920,1.108821,1.330628,-4.343519,-1.313314,1.906365,-9.486085,-15.824337,-36.338400
1.810000,-1.001501,-1.906468,1.288801,1.213850,0.899583,-0.157379,0.400033,1.094907,1.347860,-4.432688,-1.469693,1.541257,-8.457194,-15.590236,-36.388086
1.820000,-0.989344,-1.897418,1.287294,1.217628,0.910456,-0.143830,0.355300,1.079435,1.361454,-4.512228,-1.624421,1.177721,-7.455538,-15.355317,-36.295953
1.830000,-0.977150,-1.888259,1.285924,1.220954,0.921166,-0.130162,0.309822,1.062427,1.371420,-4.581900,-1.776801,0.815795,-6.484200,-15.121104,-36.066757
1.840000,-0.964926,-1.878995,1.284691,1.223822,0.931699,-0.116413,0.263694,1.043906,1.377780,-4.642023,-1.926850,0.456827,-5.546259,-14.889126,-35.705255
1.850000,-0.952675,-1.869626,1.283596,1.226226,0.942039,-0.102618,0.217012,1.023897,1.380571,-4.692947,-2.074596,0.102115,-4.644797,-14.660908,-35.216202
1.860000,-0.940403,-1.860155,1.282639,1.228160,0.952172,-0.088813,0.169883,1.002429,1.379831,-4.733354,-2.219441,-0.247955,-3.825752,-14.454254,-34.582449
1.870000,-0.928114,-1.850583,1.281820,1.229622,0.962083,-0.075033,0.122371,0.979515,1.375635,-4.767673,-2.362971,-0.590127,-3.044100,-14.252419,-33.833341
1.880000,-0.915812,-1.840914,1.281138,1.230606,0.971758,-0.061312,0.074555,0.955176,1.368055,-4.794354,-2.504504,-0.924262,-2.297676,-14.054936,-32.976316
1.890000,-0.903503,-1.831149,1.280593,1.231112,0.981182,-0.047683,0.026509,0.929432,1.357180,-4.813737,-2.644083,-1.249319,-1.584312,-13.861337,-32.018815
1.900000,-0.891192,-1.821291,1.280184,1.231136,0.990342,-0.034179,-0.021696,0.902301,1.343103,-4.826143,-2.781742,-1.564329,-0.901842,-13.671156,-30.968274
1.910000,-0.878882,-1.811343,1.279909,1.230678,0.999223,-0.020831,-0.069992,0.873813,1.325927,-4.831839,-2.916606,-1.868623,-0.248859,-13.506900,-29.826481
1.920000,-0.866580,-1.801308,1.279767,1.229736,1.007813,-0.007670,-0.118312,0.843974,1.305770,-4.831174,-3.050854,-2.160852,0.377655,-13.342315,-28.607220
1.930000,-0.854289,-1.791188,1.279755,1.228312,1.016098,0.005275,-0.166595,0.812802,1.282752,-4.824367,-3.183440,-2.440536,0.979961,-13.174118,-27.318620
1.940000,-0.842015,-1.780987,1.279872,1.226405,1.024065,0.017976,-0.214780,0.780311,1.257003,-4.811648,-3.314313,-2.707021,1.560318,-12.999030,-25.968814
1.950000,-0.829762,-1.770708,1.280114,1.224017,1.031700,0.030406,-0.262809,0.746521,1.228657,-4.793226,-3.443387,-2.959735,2.120987,-12.813771,-24.565933
1.960000,-0.817536,-1.760354,1.280479,1.221149,1.038991,0.042541,-0.310630,0.711453,1.197856,-4.769696,-3.570236,-3.198167,2.674558,-12.622829,-23.118691
1.970000,-0.805341,-1.749929,1.280963,1.217805,1.045925,0.054355,-0.358184,0.675123,1.164743,-4.740251,-3.695438,-3.421960,3.211694,-12.414204,-21.634563
1.980000,-0.793182,-1.739437,1.281565,1.213987,1.052489,0.065828,-0.405417,0.637552,1.129467,-4.705513,-3.818447,-3.630762,3.733390,-12.183662,-20.121611
1.990000,-0.781063,-1.728881,1.282279,1.209698,1.058672,0.076938,-0.452277,0.598762,1.092178,-4.665631,-3.939024,-3.824323,4.240641,-11.926971,-18.587893
2.000000,-0.768989,-1.718265,1.283102,1.204943,1.064460,0.087666,-0.498713,0.558780,1.053032,-4.620745,-4.056885,-4.002477,4.734441,-11.639901,-17.041470
2.010000,-0.756966,-1.707593,1.284031,1.199725,1.069844,0.097993,-0.544671,0.517629,1.012182,-4.570493,-4.172226,-4.165023,5.203380,-11.305096,-15.493286
2.020000,-0.744996,-1.696869,1.285061,1.194051,1.074809,0.107904,-0.590108,0.475348,0.969783,-4.516157,-4.283449,-4.312224,5.662376,-10.933055,-13.948163
2.030000,-0.733086,-1.686098,1.286187,1.187925,1.079347,0.117384,-0.634979,0.431973,0.925989,-4.457270,-4.390754,-4.444022,6.113943,-10.521150,-12.413806
2.040000,-0.721239,-1.675284,1.287407,1.181353,1.083445,0.126420,-0.679238,0.387547,0.880953,-4.393894,-4.493730,-4.560562,6.560595,-10.066757,-10.897922
2.050000,-0.709460,-1.664431,1.288714,1.174342,1.087094,0.134999,-0.722842,0.342115,0.834828,-4.326066,-4.591939,-4.662068,7.004846,-9.567250,-9.408218
2.060000,-0.697754,-1.653543,1.290105,1.166899,1.090285,0.143113,-0.765757,0.295720,0.787768,-4.254898,-4.685417,-4.748171,7.477018,-9.007352,-7.969276
2.070000,-0.686124,-1.642626,1.291575,1.159030,1.093006,0.150752,-0.807924,0.248426,0.739911,-4.177770,-4.772488,-4.820832,7.948411,-8.398638,-6.569859
2.080000,-0.674575,-1.631685,1.293119,1.150743,1.095250,0.157909,-0.849296,0.200292,0.691397,-4.095935,-4.853223,-4.879719,8.418134,-7.740034,-5.215607
2.090000,-0.663110,-1.620723,1.294732,1.142047,1.097009,0.164578,-0.889827,0.151384,0.642361,-4.009416,-4.927119,-4.925313,8.885293,-7.030464,-3.912161
2.100000,-0.651735,-1.609746,1.296409,1.132950,1.098276,0.170755,-0.929469,0.101774,0.592934,-3.918241,-4.993659,-4.958150,9.348999,-6.268851,-2.665161
2.110000,-0.640453,-1.598759,1.298145,1.123461,1.099043,0.176436,-0.968180,0.051530,0.543249,-3.822802,-5.052990,-4.977860,9.817249,-5.437163,-1.504569
2.120000,-0.629267,-1.587767,1.299936,1.113589,1.099305,0.181619,-1.005910,0.000743,0.493414,-3.722314,-5.102986,-4.987372,10.279173,-4.553356,-0.408723
2.130000,-0.618182,-1.576775,1.301776,1.103346,1.099056,0.186304,-1.042611,-0.050500,0.443537,-3.617247,-5.143887,-4.986259,10.732791,-3.618433,0.619714
2.140000,-0.607201,-1.565788,1.303660,1.092741,1.098293,0.190490,-1.078240,-0.102103,0.393722,-3.507693,-5.175187,-4.975211,11.176123,-2.633392,1.578081
2.150000,-0.596329,-1.554811,1.305584,1.081785,1.097013,0.194179,-1.112751,-0.153970,0.344064,-3.393765,-5.196391,-4.954940,11.607190,-1.599234,2.463716
2.160000,-0.585567,-1.543849,1.307542,1.070490,1.095214,0.197372,-1.146104,-0.206002,0.294665,-3.275841,-5.207567,-4.924988,12.030183,-0.502924,3.243648
2.170000,-0.574920,-1.532908,1.309530,1.058867,1.092893,0.200073,-1.178254,-0.258084,0.245589,-3.153493,-5.206925,-4.888962,12.436195,0.638783,3.949236
2.180000,-0.564391,-1.521993,1.311542,1.046929,1.090052,0.202285,-1.209160,-0.310101,0.196908,-3.027183,-5.194649,-4.846247,12.822488,1.823168,4.581531
2.190000,-0.553982,-1.511109,1.313574,1.034688,1.086692,0.204012,-1.238785,-0.361937,0.148684,-2.897119,-5.170328,-4.797572,13.186326,3.047514,5.141582
2.200000,-0.543698,-1.500261,1.315620,1.022157,1.082814,0.205260,-1.267091,-0.413467,0.100974,-2.763540,-5.133575,-4.743653,13.524973,4.309099,5.630439
2.210000,-0.533540,-1.489454,1.317677,1.009351,1.078424,0.206033,-1.294043,-0.464570,0.053838,-2.626594,-5.084451,-4.684044,13.832701,5.615816,6.020022
2.220000,-0.523512,-1.478694,1.319740,0.996281,1.073525,0.206339,-1.319613,-0.515112,0.007305,-2.486853,-5.021631,-4.622171,14.110131,6.953037,6.344077
2.230000,-0.513615,-1.467985,1.321803,0.982963,1.068124,0.206182,-1.343772,-0.564958,-0.038595,-2.344500,-4.945302,-4.557365,14.354896,8.316743,6.607222
2.240000,-0.503853,-1.457333,1.323862,0.969410,1.062229,0.205569,-1.366495,-0.613972,-0.083835,-2.199872,-4.855221,-4.490214,14.564625,9.702915,6.814073
2.250000,-0.494228,-1.446742,1.325912,0.955638,1.055848,0.204507,-1.387763,-0.662015,-0.128394,-2.053332,-4.751182,-4.421256,14.736949,11.107536,6.969247
2.260000,-0.484741,-1.436218,1.327950,0.941660,1.048992,0.203003,-1.407553,-0.708952,-0.172247,-1.904881,-4.633330,-4.350199,14.859780,12.534380,7.057491
2.270000,-0.475395,-1.425764,1.329971,0.927492,1.041673,0.201064,-1.425857,-0.754634,-0.215395,-1.755839,-4.500811,-4.279353,14.941656,13.970683,7.105725
2.280000,-0.466192,-1.415386,1.331970,0.913148,1.033904,0.198698,-1.442668,-0.798920,-0.257833,-1.606188,-4.353902,-4.208195,14.981398,15.411470,7.120999
2.290000,-0.457133,-1.405088,1.333944,0.898643,1.025700,0.195910,-1.457980,-0.841664,-0.299559,-1.456356,-4.192583,-4.137019,14.977828,16.851771,7.110361
2.300000,-0.448220,-1.394873,1.335887,0.883993,1.017077,0.192709,-1.471795,-0.882724,-0.340574,-1.306780,-4.016885,-4.066050,14.929764,18.286612,7.080862
2.310000,-0.439453,-1.384747,1.337796,0.869212,1.008052,0.189101,-1.484113,-0.921957,-0.380879,-1.157393,-3.827117,-3.995243,14.822897,19.716870,7.034552
2.320000,-0.430836,-1.374714,1.339668,0.854316,0.998644,0.185093,-1.494948,-0.959219,-0.420481,-1.009887,-3.622862,-3.925150,14.670787,21.131007,6.984092
2.330000,-0.422367,-1.364776,1.341497,0.839318,0.988874,0.180694,-1.504316,-0.994367,-0.459384,-0.864126,-3.404570,-3.855550,14.473861,22.523335,6.937144
2.340000,-0.414050,-1.354937,1.343280,0.824234,0.978764,0.175908,-1.512237,-1.027264,-0.497593,-0.720557,-3.172487,-3.786370,14.232548,23.888166,6.901370
2.350000,-0.405883,-1.345201,1.345014,0.809078,0.968337,0.170744,-1.518736,-1.057772,-0.535112,-0.579622,-2.926917,-3.717460,13.947278,25.219811,6.884432
2.360000,-0.397868,-1.335571,1.346694,0.793864,0.957617,0.165208,-1.523834,-1.085760,-0.571948,-0.441219,-2.668366,-3.649066,13.604887,26.516262,6.905952
2.370000,-0.390006,-1.326050,1.348317,0.778606,0.946631,0.159308,-1.527572,-1.111097,-0.608092,-0.307056,-2.396906,-3.579766,13.221059,27.767699,6.960167
2.380000,-0.382296,-1.316640,1.349879,0.763317,0.935405,0.153049,-1.529989,-1.133657,-0.643540,-0.176929,-2.113183,-3.509733,12.797887,28.967985,7.053274
2.390000,-0.374740,-1.307343,1.351377,0.748010,0.923967,0.146439,-1.531126,-1.153321,-0.678283,-0.051222,-1.817737,-3.438550,12.337463,30.110979,7.191471
2.400000,-0.367336,-1.298161,1.352807,0.732699,0.912348,0.139486,-1.531029,-1.169975,-0.712306,0.069703,-1.511174,-3.365733,11.841880,31.190542,7.380955
2.410000,-0.360086,-1.289096,1.354165,0.717394,0.900578,0.132196,-1.529744,-1.183510,-0.745602,0.185962,-1.194142,-3.291843,11.301701,32.200125,7.655818
2.420000,-0.352988,-1.280150,1.355449,0.702107,0.888689,0.124576,-1.527329,-1.193825,-0.778133,0.296153,-0.867406,-3.213661,10.731960,33.134050,7.990947
2.430000,-0.346043,-1.271323,1.356656,0.686851,0.876713,0.116636,-1.523840,-1.200828,-0.809863,0.400514,-0.531734,-3.131814,10.136161,33.986227,8.389123
2.440000,-0.339251,-1.262616,1.357781,0.671634,0.864683,0.108382,-1.519339,-1.204433,-0.840755,0.498801,-0.187974,-3.045659,9.517808,34.750568,8.853128
2.450000,-0.332610,-1.254029,1.358822,0.656467,0.852635,0.099824,-1.513885,-1.204564,-0.870760,0.590807,0.162964,-2.954523,8.880405,35.420983,9.385742
2.460000,-0.326121,-1.245563,1.359777,0.641359,0.840604,0.090970,-1.507541,-1.201150,-0.899843,0.676633,0.520428,-2.859258,8.220495,35.983415,10.028930
2.470000,-0.319783,-1.237217,1.360641,0.626319,0.828624,0.081831,-1.500375,-1.194138,-0.927923,0.755490,0.882638,-2.755463,7.549397,36.440720,10.741494
2.480000,-0.313595,-1.228990,1.361412,0.611354,0.816733,0.072415,-1.492454,-1.183484,-0.954927,0.827598,1.248875,-2.644203,6.871467,36.787784,11.521415
2.490000,-0.307556,-1.220882,1.362088,0.596472,0.804967,0.062736,-1.483845,-1.169151,-0.980780,0.892911,1.618009,-2.524816,6.191061,37.019495,12.366679
2.500000,-0.301665,-1.212890,1.362666,0.581679,0.793363,0.052804,-1.474618,-1.151118,-1.005394,0.951426,1.988863,-2.396659,5.512537,37.130739,13.275269
2.510000,-0.295922,-1.205014,1.363143,0.566981,0.781957,0.042633,-1.464839,-1.129364,-1.028699,1.003191,2.360965,-2.260770,4.840044,37.097219,14.287178
2.520000,-0.290325,-1.197250,1.363518,0.552384,0.770787,0.032235,-1.454576,-1.103902,-1.050575,1.048271,2.731236,-2.112610,4.178172,36.935356,15.353235
2.530000,-0.284874,-1.189597,1.363787,0.537891,0.759891,0.021627,-1.443896,-1.074747,-1.070915,1.086804,3.099235,-1.953549,3.531302,36.642385,16.466281
2.540000,-0.279567,-1.182051,1.363950,0.523507,0.749305,0.010823,-1.432862,-1.041929,-1.089608,1.118962,3.463637,-1.783152,2.903816,36.215541,17.619155
2.550000,-0.274403,-1.174610,1.364003,0.509235,0.739065,-0.000160,-1.421537,-1.005491,-1.106539,1.144960,3.823090,-1.601057,2.300096,35.652061,18.804696
2.560000,-0.269382,-1.167269,1.363946,0.495077,0.729206,-0.011302,-1.409985,-0.965475,-1.121604,1.164757,4.177471,-1.408291,1.732122,34.917432,20.049029
2.570000,-0.264501,-1.160024,1.363777,0.481036,0.719766,-0.022585,-1.398260,-0.921968,-1.134663,1.179369,4.522396,-1.201514,1.195748,34.044525,21.307634
2.580000,-0.259761,-1.152872,1.363494,0.467113,0.710778,-0.033988,-1.386415,-0.875058,-1.145592,1.188789,4.857904,-0.982128,0.694425,33.034465,22.569272
2.590000,-0.255159,-1.145807,1.363097,0.453308,0.702276,-0.045489,-1.374501,-0.824846,-1.154264,1.193385,5.182631,-0.750156,0.231604,31.888376,23.822709
2.600000,-0.250694,-1.138825,1.362584,0.439623,0.694292,-0.057065,-1.362562,-0.771446,-1.160554,1.193561,5.495222,-0.505738,-0.189262,30.607380,25.056707
2.610000,-0.246366,-1.131920,1.361955,0.426057,0.686857,-0.068692,-1.350649,-0.714969,-1.164343,1.189153,5.795956,-0.249609,-0.549600,29.151610,26.272259
2.620000,-0.242173,-1.125086,1.361210,0.412610,0.680002,-0.080343,-1.338791,-0.655577,-1.165506,1.182050,6.079659,0.019016,-0.862931,27.568201,27.444403
2.630000,-0.238113,-1.118317,1.360348,0.399281,0.673755,-0.091993,-1.327018,-0.593430,-1.163925,1.172056,6.346915,0.299092,-1.127659,25.863295,28.560404
2.640000,-0.234187,-1.111609,1.359370,0.386069,0.668142,-0.103612,-1.315357,-0.528698,-1.159488,1.159664,6.596540,0.589995,-1.342181,24.043035,29.607531
2.650000,-0.230391,-1.104952,1.358276,0.372973,0.663189,-0.115172,-1.303831,-0.461562,-1.152091,1.145385,6.827412,0.890971,-1.504900,22.113565,30.573048
2.660000,-0.226727,-1.098343,1.357067,0.359992,0.658917,-0.126644,-1.292463,-0.392198,-1.141630,1.128952,7.040095,1.201841,-1.594194,20.039932,31.426553
2.670000,-0.223191,-1.091772,1.355744,0.347124,0.655351,-0.137995,-1.281254,-0.320831,-1.128028,1.112783,7.229739,1.519941,-1.630937,17.874406,32.175145
2.680000,-0.219784,-1.085233,1.354308,0.334366,0.652507,-0.149194,-1.270208,-0.247677,-1.111209,1.096505,7.397314,1.844959,-1.615979,15.628163,32.808255
2.690000,-0.216504,-1.078719,1.352761,0.321719,0.650402,-0.160208,-1.259322,-0.172961,-1.091110,1.080633,7.542070,2.175686,-1.550173,13.312378,33.315312
2.700000,-0.213349,-1.072223,1.351104,0.309180,0.649052,-0.171005,-1.248592,-0.096914,-1.067680,1.065669,7.663367,2.510810,-1.434371,10.938225,33.685747
2.710000,-0.210320,-1.065736,1.349341,0.296747,0.648468,-0.181551,-1.238013,-0.019762,-1.040863,1.051332,7.761700,2.850754,-1.249798,8.491036,33.862427
2.720000,-0.207414,-1.059251,1.347474,0.284419,0.648659,-0.191811,-1.227558,0.058238,-1.010662,1.039949,7.834232,3.189630,-1.019334,6.010994,33.887047
2.730000,-0.204631,-1.052760,1.345506,0.272195,0.649634,-0.201753,-1.217205,0.136839,-0.977073,1.031087,7.881859,3.527972,-0.746237,3.512439,33.754739
2.740000,-0.201970,-1.046255,1.343440,0.260075,0.651397,-0.211342,-1.206927,0.215792,-0.940109,1.025156,7.904467,3.864186,-0.433760,1.009710,33.460633
2.750000,-0.199429,-1.039729,1.341281,0.248057,0.653950,-0.220544,-1.196691,0.294845,-0.899801,1.022533,7.902087,4.196629,-0.085159,-1.482852,32.999863
2.760000,-0.197008,-1.033174,1.339031,0.236141,0.657294,-0.229327,-1.186469,0.373749,-0.856169,1.023062,7.874710,4.526034,0.308955,-3.946328,32.306358
2.770000,-0.194706,-1.026581,1.336696,0.224328,0.661424,-0.237657,-1.176216,0.452258,-0.809307,1.028241,7.823083,4.844925,0.731134,-6.371520,31.443945
2.780000,-0.192521,-1.019943,1.334279,0.212617,0.666337,-0.245503,-1.165890,0.530131,-0.759302,1.037762,7.747453,5.154359,1.176576,-8.744648,30.415251
2.790000,-0.190453,-1.013251,1.331787,0.201010,0.672024,-0.252833,-1.155446,0.607129,-0.706257,1.051834,7.648410,5.452685,1.640477,-11.051934,29.222902
2.800000,-0.188501,-1.006500,1.329225,0.189509,0.678476,-0.259618,-1.144838,0.683023,-0.650290,1.070617,7.526680,5.738280,2.118035,-13.279599,27.869525
2.810000,-0.186663,-0.999679,1.326597,0.178114,0.685680,-0.265830,-1.134018,0.757574,-0.591515,1.094178,7.381660,6.011739,2.605616,-15.376754,26.302381
2.820000,-0.184938,-0.992783,1.323910,0.166829,0.693623,-0.271441,-1.122938,0.830588,-0.530110,1.122690,7.217830,6.266303,3.097103,-17.371275,24.586239
2.830000,-0.183326,-0.985804,1.321170,0.155656,0.702286,-0.276424,-1.111548,0.901866,-0.466248,1.156116,7.034607,6.502999,3.587550,-19.253926,22.730504
2.840000,-0.181825,-0.978735,1.318384,0.144599,0.711653,-0.280758,-1.099799,0.971220,-0.400115,1.194421,6.833156,6.720479,4.072010,-21.015472,20.744581
2.850000,-0.180433,-0.971569,1.315557,0.133662,0.721704,-0.284420,-1.087643,1.038473,-0.331907,1.237520,6.614732,6.917488,4.545538,-22.646680,18.637876
2.860000,-0.179151,-0.964299,1.312698,0.122848,0.732416,-0.287390,-1.075029,1.103438,-0.261822,1.285689,6.378463,7.094192,4.992845,-24.082129,16.386283
2.870000,-0.177976,-0.956919,1.309812,0.112163,0.743765,-0.289651,-1.061915,1.165996,-0.190100,1.337774,6.131055,7.246383,5.420592,-25.375649,14.036820
2.880000,-0.176907,-0.949422,1.306907,0.101611,0.755727,-0.291188,-1.048259,1.226018,-0.116975,1.394023,5.871431,7.374647,5.825100,-26.524886,11.602997
2.890000,-0.175943,-0.941802,1.303990,0.091199,0.768277,-0.291987,-1.034022,1.283389,-0.042689,1.454186,5.601046,7.478207,6.202688,-27.527484,9.098323
2.900000,-0.175083,-0.934054,1.301070,0.080933,0.781386,-0.292038,-1.019164,1.338008,0.032505,1.517975,5.321378,7.556422,6.549676,-28.381089,6.536305
2.910000,-0.174324,-0.926173,1.298152,0.070818,0.795028,-0.291335,-1.003643,1.389767,0.108355,1.585785,5.031713,7.608985,6.844204,-29.027397,3.925455
2.920000,-0.173666,-0.918152,1.295246,0.060862,0.809172,-0.289870,-0.987439,1.438623,0.184597,1.655551,4.738821,7.635055,7.102999,-29.526853,1.284890
2.930000,-0.173106,-0.909988,1.292357,0.051072,0.823791,-0.287642,-0.970524,1.484529,0.260968,1.727721,4.441651,7.634631,7.324606,-29.883953,-1.371268
2.940000,-0.172644,-0.901675,1.289495,0.041454,0.838853,-0.284651,-0.952878,1.527447,0.337201,1.801914,4.141602,7.607625,7.507570,-30.103192,-4.028899
2.950000,-0.172277,-0.893209,1.286667,0.032017,0.854330,-0.280900,-0.934480,1.567356,0.413032,1.877739,3.840031,7.554095,7.650439,-30.189068,-6.673883
2.960000,-0.172003,-0.884587,1.283880,0.022767,0.870191,-0.276393,-0.915310,1.604230,0.488187,1.955542,3.536687,7.473513,7.732639,-30.106603,-9.273819
2.970000,-0.171821,-0.875804,1.281141,0.013713,0.886405,-0.271139,-0.895368,1.638094,0.562416,2.033109,3.236536,7.367931,7.774176,-29.904600,-11.835105
2.980000,-0.171728,-0.866858,1.278459,0.004862,0.902943,-0.265148,-0.874648,1.668969,0.635461,2.110893,2.938963,7.236979,7.775936,-29.592388,-14.345858
2.990000,-0.171723,-0.857744,1.275841,-0.003778,0.919774,-0.258434,-0.853150,1.696886,0.707073,2.188498,2.645024,7.081222,7.738808,-29.179296,-16.794195
3.000000,-0.171803,-0.848461,1.273293,-0.012198,0.936871,-0.251012,-0.830879,1.721885,0.777005,2.265542,2.355682,6.901343,7.663677,-28.674655,-19.168234
3.010000,-0.171966,-0.839006,1.270823,-0.020393,0.954203,-0.242900,-0.807836,1.744011,0.845006,2.342223,2.071209,6.696684,7.536911,-28.072745,-21.419187
3.020000,-0.172210,-0.829377,1.268437,-0.028353,0.971742,-0.234119,-0.784040,1.763330,0.910866,2.416814,1.793792,6.471624,7.375695,-27.399786,-23.576596
3.030000,-0.172532,-0.819571,1.266143,-0.036071,0.989460,-0.224691,-0.759506,1.779910,0.974368,2.489631,1.523413,6.225488,7.182693,-26.666951,-25.633099
3.040000,-0.172930,-0.809587,1.263946,-0.043540,1.007331,-0.214640,-0.734254,1.793824,1.035309,2.560371,1.260615,5.959322,6.960572,-25.885411,-27.581332
3.050000,-0.173402,-0.799424,1.261852,-0.050754,1.025328,-0.203994,-0.708306,1.805149,1.093492,2.628754,1.005830,5.674247,6.711995,-25.066337,-29.413933
3.060000,-0.173945,-0.789080,1.259868,-0.057704,1.043425,-0.192780,-0.681684,1.813973,1.148720,2.694897,0.759767,5.370126,6.430395,-24.230757,-31.089988
3.070000,-0.174555,-0.778555,1.257998,-0.064385,1.061599,-0.181029,-0.654418,1.820373,1.200841,2.757708,0.521710,5.051370,6.128801,-23.378782,-32.639791
3.080000,-0.175231,-0.767848,1.256249,-0.070791,1.079825,-0.168774,-0.626540,1.824435,1.249698,2.817419,0.292213,4.717761,5.811007,-22.520375,-34.060089
3.090000,-0.175970,-0.756958,1.254624,-0.076914,1.098080,-0.156047,-0.598081,1.826246,1.295151,2.873887,0.071290,4.370611,5.480810,-21.665503,-35.347625
3.100000,-0.176769,-0.745886,1.253129,-0.082751,1.116343,-0.142883,-0.569073,1.825890,1.337070,2.927006,-0.141142,4.011262,5.142005,-20.824131,-36.499146
3.110000,-0.177624,-0.734632,1.251768,-0.088294,1.134591,-0.129317,-0.539554,1.823465,1.375328,2.976500,-0.343965,3.640027,4.803716,-20.039200,-37.484481
3.120000,-0.178534,-0.723195,1.250544,-0.093540,1.152805,-0.115388,-0.509555,1.819036,1.409840,3.022837,-0.540552,3.260835,4.463758,-19.283662,-38.330586
3.130000,-0.179494,-0.711576,1.249461,-0.098484,1.170965,-0.101133,-0.479109,1.812678,1.440519,3.065780,-0.729756,2.873879,4.125274,-18.563443,-39.037501
3.140000,-0.180502,-0.699775,1.248522,-0.103121,1.189052,-0.086591,-0.448250,1.804464,1.467296,3.105358,-0.911959,2.480549,3.791407,-17.884471,-39.605266
3.150000,-0.181555,-0.687795,1.247730,-0.107447,1.207048,-0.071800,-0.417013,1.794461,1.490113,3.141634,-1.087603,2.082237,3.465301,-17.252672,-40.033922
3.160000,-0.182650,-0.675635,1.247087,-0.111460,1.224935,-0.056802,-0.385429,1.782751,1.508923,3.174663,-1.255445,1.679771,3.151049,-16.718019,-40.309290
3.170000,-0.183783,-0.663297,1.246595,-0.115155,1.242697,-0.041635,-0.353530,1.769369,1.523702,3.204659,-1.420175,1.275874,2.850727,-16.237000,-40.447370
3.180000,-0.184952,-0.650781,1.246255,-0.118530,1.260317,-0.026341,-0.321345,1.754363,1.534438,3.231734,-1.580366,0.871275,2.567363,-15.810150,-40.449945
3.190000,-0.186153,-0.638091,1.246068,-0.121581,1.277779,-0.010960,-0.288904,1.737775,1.541130,3.256073,-1.736561,0.467321,2.303983,-15.438003,-40.318797
3.200000,-0.187383,-0.625226,1.246036,-0.124307,1.295068,0.004468,-0.256232,1.719643,1.543791,3.277890,-1.889310,0.065339,2.063614,-15.121093,-40.055707
3.210000,-0.188638,-0.612190,1.246158,-0.126705,1.312167,0.019903,-0.223360,1.700013,1.542442,3.296887,-2.037807,-0.333814,1.863040,-14.894335,-39.650980
3.220000,-0.189916,-0.598984,1.246434,-0.128773,1.329062,0.035304,-0.190301,1.678894,1.537130,3.314628,-2.185835,-0.727769,1.689846,-14.719672,-39.119279
3.230000,-0.191212,-0.585610,1.246863,-0.130510,1.345740,0.050632,-0.157073,1.656302,1.527907,3.330780,-2.332362,-1.115787,1.545374,-14.593427,-38.463794
3.240000,-0.192525,-0.572070,1.247446,-0.131914,1.362184,0.065849,-0.123690,1.632250,1.514838,3.345636,-2.477853,-1.496643,1.430968,-14.511924,-37.687709
3.250000,-0.193850,-0.558367,1.248180,-0.132984,1.378380,0.080917,-0.090163,1.606747,1.498002,3.359504,-2.622737,-1.869149,1.347969,-14.471487,-36.794213
3.260000,-0.195183,-0.544503,1.249064,-0.133717,1.394314,0.095797,-0.056515,1.579803,1.477478,3.371475,-2.766738,-2.232960,1.328763,-14.485347,-35.765959
3.270000,-0.196523,-0.530481,1.250095,-0.134113,1.409971,0.110454,-0.022734,1.551411,1.453379,3.384794,-2.911795,-2.585024,1.339848,-14.530851,-34.629183
3.280000,-0.197864,-0.516305,1.251272,-0.134171,1.425337,0.124853,0.011182,1.521565,1.425817,3.398365,-3.057441,-2.925201,1.378765,-14.602252,-33.389585
3.290000,-0.199205,-0.501976,1.252591,-0.133889,1.440397,0.138960,0.045235,1.490259,1.394918,3.412454,-3.203907,-3.252492,1.443056,-14.693803,-32.052867
3.300000,-0.200541,-0.487498,1.254050,-0.133266,1.455137,0.152741,0.079433,1.457484,1.360814,3.427303,-3.351365,-3.565953,1.530261,-14.799759,-30.624730
3.310000,-0.201869,-0.472874,1.255645,-0.132300,1.469542,0.166166,0.113781,1.423229,1.323643,3.442789,-3.499875,-3.865119,1.646476,-14.915794,-29.100311
3.320000,-0.203186,-0.458108,1.257372,-0.130989,1.483597,0.179204,0.148293,1.387482,1.283563,3.459907,-3.649627,-4.148169,1.779640,-15.034566,-27.497169
3.330000,-0.204488,-0.443203,1.259228,-0.129333,1.497287,0.191828,0.182984,1.350232,1.240734,3.478426,-3.800556,-4.414823,1.926247,-15.150155,-25.822301
3.340000,-0.205771,-0.428164,1.261207,-0.127329,1.510596,0.204010,0.217867,1.311467,1.195324,3.498465,-3.952600,-4.664399,2.082790,-15.256640,-24.082702
3.350000,-0.207033,-0.412993,1.263306,-0.124975,1.523511,0.215726,0.252958,1.271177,1.147505,3.520104,-4.105638,-4.896285,2.245763,-15.348100,-22.285367
3.360000,-0.208270,-0.397695,1.265520,-0.122269,1.536015,0.226953,0.288267,1.229349,1.097455,3.542710,-4.259736,-5.110282,2.428825,-15.412447,-20.428580
3.370000,-0.209477,-0.382274,1.267844,-0.119209,1.548093,0.237669,0.323819,1.185981,1.045362,3.567905,-4.414076,-5.305103,2.609202,-15.450683,-18.529114
3.380000,-0.210653,-0.366734,1.270272,-0.115792,1.559729,0.247854,0.359631,1.141067,0.991417,3.594866,-4.568646,-5.480749,2.781285,-15.457644,-16.595031
3.390000,-0.211792,-0.351081,1.272799,-0.112015,1.570909,0.257492,0.395721,1.094608,0.935812,3.623484,-4.723107,-5.636915,2.939466,-15.428164,-14.634393
3.400000,-0.212892,-0.335318,1.275420,-0.107876,1.581616,0.266566,0.432106,1.046607,0.878744,3.653591,-4.877070,-5.773375,3.078137,-15.357077,-12.655262
3.410000,-0.213948,-0.319450,1.278128,-0.103372,1.591836,0.275062,0.468808,0.997065,0.820413,3.685940,-5.030555,-5.889785,3.167027,-15.227548,-10.670759
3.420000,-0.214958,-0.303483,1.280919,-0.098499,1.601553,0.282970,0.505827,0.946001,0.761015,3.717940,-5.181974,-5.986555,3.228209,-15.047512,-8.683268
3.430000,-0.215917,-0.287421,1.283786,-0.093255,1.610751,0.290280,0.543168,0.893432,0.700748,3.750403,-5.331324,-6.063465,3.259096,-14.813231,-6.700231
3.440000,-0.216822,-0.271269,1.286722,-0.087635,1.619416,0.296983,0.580836,0.839383,0.639812,3.783012,-5.478045,-6.120599,3.257097,-14.520971,-4.729090
3.450000,-0.217669,-0.255034,1.289723,-0.081637,1.627534,0.303074,0.618828,0.783882,0.578402,3.815426,-5.621538,-6.158112,3.219625,-14.166994,-2.777289
3.460000,-0.218453,-0.238721,1.292782,-0.075257,1.635090,0.308550,0.657149,0.726955,0.516716,3.847946,-5.762044,-6.176034,3.127219,-13.725421,-0.857325
3.470000,-0.219172,-0.222334,1.295892,-0.068493,1.642069,0.313408,0.695783,0.668657,0.454944,3.878595,-5.896813,-6.175144,2.996229,-13.217371,1.029033
3.480000,-0.219822,-0.205881,1.299048,-0.061341,1.648458,0.317649,0.734716,0.609037,0.393275,3.907740,-6.026166,-6.155588,2.826131,-12.641819,2.874962
3.490000,-0.220398,-0.189367,1.302243,-0.053798,1.654245,0.321275,0.773932,0.548154,0.331894,3.934986,-6.149421,-6.117803,2.616404,-11.997741,4.673639
3.500000,-0.220897,-0.172798,1.305471,-0.045861,1.659417,0.324289,0.813408,0.486071,0.270978,3.959934,-6.265889,-6.062295,2.366525,-11.284112,6.418239
3.510000,-0.221314,-0.156181,1.308727,-0.037529,1.663963,0.326696,0.853124,0.422849,0.210709,3.982419,-6.375966,-5.989264,2.069947,-10.472183,8.092413
3.520000,-0.221646,-0.139521,1.312003,-0.028798,1.667871,0.328505,0.893046,0.358580,0.151248,4.001467,-6.476343,-5.900244,1.732908,-9.592049,9.700030
3.530000,-0.221889,-0.122826,1.315295,-0.019667,1.671132,0.329725,0.933141,0.293353,0.092756,4.016943,-6.567587,-5.795504,1.355626,-8.646079,11.235433
3.540000,-0.222038,-0.106101,1.318596,-0.010135,1.673735,0.330364,0.973372,0.227261,0.035388,4.028446,-6.649053,-5.675795,0.938314,-7.636643,12.692964
3.550000,-0.222090,-0.089353,1.321900,-0.000200,1.675674,0.330436,1.013696,0.160406,-0.020712,4.035577,-6.720117,-5.541923,0.481188,-6.566112,14.066967
3.560000,-0.222041,-0.072590,1.325203,0.010139,1.676942,0.329954,1.054077,0.092885,-0.075397,4.038777,-6.781114,-5.393847,-0.036735,-5.413249,15.328900
3.570000,-0.221886,-0.055817,1.328498,0.020882,1.677531,0.328933,1.094453,0.024823,-0.128549,4.035666,-6.829257,-5.234630,-0.591446,-4.206921,16.498793
3.580000,-0.221622,-0.039041,1.331780,0.032028,1.677437,0.327389,1.134771,-0.043659,-0.180052,4.026835,-6.865092,-5.064187,-1.180134,-2.952388,17.573790
3.590000,-0.221244,-0.022270,1.335044,0.043577,1.676656,0.325338,1.174970,-0.112436,-0.229798,4.011960,-6.888162,-4.883480,-1.799988,-1.654912,18.551036
3.600000,-0.220749,-0.005510,1.338285,0.055527,1.675187,0.322799,1.214989,-0.181378,-0.277690,3.990741,-6.898064,-4.693502,-2.448198,-0.319753,19.427675
3.610000,-0.220132,0.011231,1.341498,0.067875,1.673029,0.319791,1.254767,-0.250358,-0.323630,3.963287,-6.895022,-4.494283,-3.131453,1.062312,20.175877
3.620000,-0.219390,0.027948,1.344679,0.080621,1.670181,0.316333,1.294231,-0.319232,-0.367553,3.928464,-6.877380,-4.289213,-3.836279,2.469764,20.820821
3.630000,-0.218518,0.044633,1.347823,0.093759,1.666645,0.312446,1.333312,-0.387859,-0.409394,3.886502,-6.845566,-4.078210,-4.558700,3.895571,21.362711
3.640000,-0.217513,0.061279,1.350927,0.107285,1.662425,0.308152,1.371937,-0.456096,-0.449101,3.837245,-6.799431,-3.862302,-5.294744,5.332698,21.801749
3.650000,-0.216371,0.077879,1.353985,0.121196,1.657525,0.303472,1.410033,-0.523799,-0.486628,3.780575,-6.738898,-3.642517,-6.040435,6.774112,22.138138
3.660000,-0.215088,0.094427,1.356995,0.135484,1.651951,0.298427,1.447521,-0.590825,-0.521931,3.716120,-6.663947,-3.418901,-6.784298,8.212491,22.347336
3.670000,-0.213660,0.110916,1.359953,0.150144,1.645711,0.293040,1.484330,-0.657030,-0.555000,3.644546,-6.574667,-3.194796,-7.530779,9.641123,22.457323
3.680000,-0.212084,0.127339,1.362855,0.165168,1.638814,0.287334,1.520387,-0.722271,-0.585825,3.565506,-6.471180,-2.970074,-8.276822,11.053010,22.471331
3.690000,-0.210356,0.143690,1.365698,0.180549,1.631270,0.281331,1.555615,-0.786407,-0.614403,3.479021,-6.353686,-2.745679,-9.019371,12.441152,22.392595
3.700000,-0.208472,0.159962,1.368480,0.196278,1.623090,0.275054,1.589942,-0.849299,-0.640743,3.385140,-6.222459,-2.522521,-9.755371,13.798551,22.224347
3.710000,-0.206429,0.176150,1.371199,0.212345,1.614288,0.268524,1.623295,-0.910807,-0.664852,3.284048,-6.077440,-2.300711,-10.484365,15.108078,21.950407
3.720000,-0.204224,0.192246,1.373850,0.228740,1.604879,0.261764,1.655599,-0.970805,-0.686767,3.175612,-5.919991,-2.082915,-11.200379,16.374104,21.595800
3.730000,-0.201853,0.208245,1.376433,0.245453,1.594877,0.254795,1.686784,-1.029166,-0.706523,3.060095,-5.750122,-1.869045,-11.900041,17.590871,21.166136
3.740000,-0.199314,0.224141,1.378945,0.262472,1.584301,0.247640,1.716778,-1.085768,-0.724164,2.937677,-5.568357,-1.659824,-12.579976,18.752619,20.667027
3.750000,-0.196603,0.239929,1.381385,0.279784,1.573168,0.240319,1.745515,-1.140495,-0.739738,2.808573,-5.375272,-1.455917,-13.236810,19.853590,20.104083
3.760000,-0.193717,0.255603,1.383751,0.297378,1.561498,0.232852,1.772928,-1.193229,-0.753298,2.672979,-5.170738,-1.257592,-13.865895,20.868613,19.474220
3.770000,-0.190654,0.271158,1.386042,0.315238,1.549310,0.225259,1.798954,-1.243877,-0.764911,2.531297,-4.957267,-1.066216,-14.465287,21.813718,18.792808
3.780000,-0.187412,0.286588,1.388256,0.333352,1.536627,0.217560,1.823534,-1.292344,-0.774646,2.383783,-4.734708,-0.881885,-15.031769,22.685525,18.066524
3.790000,-0.183987,0.301888,1.390393,0.351704,1.523471,0.209772,1.846611,-1.338544,-0.782574,2.230782,-4.503812,-0.705013,-15.562123,23.480652,17.302043
3.800000,-0.180377,0.317056,1.392451,0.370279,1.509864,0.201914,1.868133,-1.382395,-0.788772,2.072672,-4.265362,-0.535949,-16.053131,24.195717,16.506040
3.810000,-0.176580,0.332084,1.394431,0.389061,1.495831,0.194003,1.888038,-1.423818,-0.793323,1.908857,-4.019199,-0.375223,-16.476215,24.802680,15.691456
3.820000,-0.172595,0.346971,1.396331,0.408034,1.481396,0.186053,1.906296,-1.462761,-0.796304,1.742157,-3.768487,-0.222463,-16.856622,25.325839,14.857934
3.830000,-0.168419,0.361711,1.398152,0.427182,1.466584,0.178081,1.922869,-1.499172,-0.797800,1.571867,-3.512963,-0.078108,-17.194241,25.764829,14.011385
3.840000,-0.164051,0.376301,1.399893,0.446486,1.451421,0.170102,1.937723,-1.533007,-0.797895,1.398416,-3.253472,0.057741,-17.488959,26.119291,13.157716
3.850000,-0.159489,0.390738,1.401554,0.465930,1.435933,0.162128,1.950829,-1.564231,-0.796674,1.222232,-2.990860,0.185042,-17.740663,26.388862,12.302836
3.860000,-0.154732,0.405019,1.403136,0.485497,1.420145,0.154173,1.962160,-1.592809,-0.794228,1.043713,-2.725261,0.303289,-17.948398,26.555042,11.465891
3.870000,-0.149779,0.419140,1.404638,0.505168,1.404085,0.146247,1.971697,-1.618732,-0.790636,0.863370,-2.459228,0.413799,-18.112998,26.637827,10.637932
3.880000,-0.144628,0.433100,1.406061,0.524925,1.387779,0.138364,1.979422,-1.641992,-0.785979,0.681596,-2.192776,0.516092,-18.234454,26.639077,9.823247
3.890000,-0.139280,0.446895,1.407405,0.544750,1.371254,0.130531,1.985325,-1.662588,-0.780341,0.498824,-1.926712,0.610323,-18.312758,26.560650,9.026123
3.900000,-0.133733,0.460524,1.408671,0.564625,1.354536,0.122760,1.989397,-1.680530,-0.773799,0.315485,-1.661822,0.696687,-18.347900,26.404405,8.250847
3.910000,-0.127987,0.473985,1.409860,0.584532,1.337652,0.115058,1.991630,-1.695826,-0.766440,0.131617,-1.398395,0.774690,-18.329936,26.160022,7.520303
3.920000,-0.122042,0.487277,1.410973,0.604452,1.320628,0.107434,1.992031,-1.708507,-0.758329,-0.051417,-1.138320,0.846357,-18.270009,25.843031,6.817907
3.930000,-0.115898,0.500398,1.412009,0.624366,1.303491,0.099894,1.990604,-1.718604,-0.749536,-0.233647,-0.881765,0.911149,-18.169326,25.456779,6.145669
3.940000,-0.109555,0.513346,1.412971,0.644258,1.286265,0.092445,1.987362,-1.726156,-0.740128,-0.414672,-0.629404,0.969378,-18.029096,25.004618,5.505601
3.950000,-0.103013,0.526123,1.413859,0.664108,1.268976,0.085093,1.982316,-1.731209,-0.730169,-0.594101,-0.381881,1.021375,-17.850524,24.489897,4.899713
3.960000,-0.096273,0.538726,1.414673,0.683898,1.251649,0.077843,1.975484,-1.733810,-0.719727,-0.771735,-0.139605,1.066830,-17.630372,23.910938,4.346760
3.970000,-0.089336,0.551156,1.415416,0.703611,1.234308,0.070700,1.966890,-1.734021,-0.708850,-0.946790,0.096378,1.107683,-17.374839,23.276735,3.829959
3.980000,-0.082201,0.563412,1.416088,0.723230,1.216976,0.063668,1.956558,-1.731904,-0.697590,-1.119119,0.325759,1.143549,-17.085678,22.591253,3.349271
3.990000,-0.074871,0.575495,1.416690,0.742737,1.199677,0.056750,1.944517,-1.727529,-0.685995,-1.288397,0.548045,1.174789,-16.764641,21.858457,2.904656
4.000000,-0.067347,0.587406,1.417223,0.762115,1.182433,0.049949,1.930801,-1.720969,-0.674109,-1.454312,0.762784,1.201763,-16.413480,21.082313,2.496076
4.010000,-0.059629,0.599144,1.417689,0.781348,1.165265,0.043268,1.915442,-1.712300,-0.661978,-1.616651,0.969555,1.224378,-16.031956,20.266910,2.134915
4.020000,-0.051721,0.610711,1.418089,0.800418,1.148194,0.036710,1.898481,-1.701605,-0.649633,-1.774952,1.167998,1.244066,-15.624057,19.416074,1.808312
4.030000,-0.043622,0.622108,1.418424,0.819312,1.131239,0.030276,1.879957,-1.688969,-0.637107,-1.929051,1.357772,1.260655,-15.191778,18.533757,1.514826
4.040000,-0.035335,0.633337,1.418695,0.838013,1.114420,0.023968,1.859915,-1.674480,-0.624429,-2.078713,1.538582,1.274468,-14.737117,17.623907,1.253021
4.050000,-0.026862,0.644397,1.418903,0.856505,1.097755,0.017788,1.838399,-1.658228,-0.611625,-2.223725,1.710171,1.285816,-14.262069,16.690475,1.021457
4.060000,-0.018206,0.655292,1.419051,0.874776,1.081261,0.011736,1.815457,-1.640309,-0.598722,-2.363880,1.872193,1.294798,-13.768951,15.740770,0.823625
4.070000,-0.009367,0.666023,1.419139,0.892810,1.064954,0.005814,1.791138,-1.620816,-0.585736,-2.499035,2.024783,1.302158,-13.259400,14.774972,0.652554
4.080000,-0.000350,0.676592,1.419168,0.910594,1.048850,0.000022,1.765493,-1.599846,-0.572684,-2.629020,2.167650,1.307932,-12.735372,13.796620,0.506204
4.090000,0.008844,0.687001,1.419139,0.928115,1.032962,-0.005640,1.738575,-1.577496,-0.559581,-2.753701,2.300686,1.312357,-12.198823,12.809254,0.382533
4.100000,0.018211,0.697252,1.419055,0.945362,1.017304,-0.011170,1.710437,-1.553865,-0.546441,-2.872961,2.423817,1.315651,-11.651711,11.816413,0.279499
4.110000,0.027750,0.707348,1.418916,0.962320,1.001889,-0.016568,1.681135,-1.529055,-0.533271,-2.986626,2.536804,1.318038,-11.098003,10.826775,0.194349
4.120000,0.037457,0.717291,1.418724,0.978980,0.986727,-0.021835,1.650723,-1.503162,-0.520082,-3.094809,2.640126,1.319625,-10.537399,9.838111,0.125840
4.130000,0.047328,0.727083,1.418480,0.995331,0.971829,-0.026970,1.619258,-1.476286,-0.506881,-3.197357,2.733579,1.320603,-9.971608,8.853330,0.072019
4.140000,0.057362,0.736728,1.418185,1.011362,0.957204,-0.031973,1.586795,-1.448523,-0.493672,-3.294229,2.817216,1.321108,-9.402342,7.875342,0.030930
4.150000,0.067555,0.746228,1.417841,1.027064,0.942861,-0.036843,1.553392,-1.419974,-0.480460,-3.385398,2.891118,1.321258,-8.831310,6.907056,0.000620
4.160000,0.077902,0.755586,1.417449,1.042427,0.928807,-0.041582,1.519107,-1.390736,-0.467246,-3.470743,2.955163,1.321320,-8.263065,5.957339,-0.025162
4.170000,0.088402,0.764805,1.417010,1.057443,0.915048,-0.046188,1.483996,-1.360902,-0.454034,-3.550537,3.010049,1.320971,-7.696127,5.022415,-0.043548
4.180000,0.099050,0.773888,1.416526,1.072105,0.901591,-0.050663,1.448115,-1.330566,-0.440827,-3.624674,3.055668,1.320469,-7.131859,4.104464,-0.055966
4.190000,0.109843,0.782838,1.415997,1.086403,0.888438,-0.055005,1.411522,-1.299819,-0.427625,-3.693188,3.092202,1.319867,-6.571623,3.205666,-0.063844
4.200000,0.120777,0.791658,1.415426,1.100333,0.875595,-0.059215,1.374270,-1.268751,-0.414430,-3.756124,3.119852,1.319203,-6.016783,2.328203,-0.068611
4.210000,0.131848,0.800351,1.414813,1.113887,0.863064,-0.063293,1.336419,-1.237453,-0.401239,-3.813421,3.138601,1.318721,-5.471852,1.480402,-0.077271
4.220000,0.143053,0.808920,1.414161,1.127059,0.850847,-0.067240,1.298020,-1.206007,-0.388056,-3.865447,3.149269,1.317909,-4.934655,0.657544,-0.084993
4.230000,0.154388,0.817369,1.413469,1.139845,0.838944,-0.071055,1.259128,-1.174495,-0.374881,-3.912143,3.151839,1.317022,-4.406167,-0.138945,-0.092523
4.240000,0.165849,0.825700,1.412740,1.152240,0.827357,-0.074738,1.219795,-1.142996,-0.361715,-3.953602,3.146583,1.316057,-3.887366,-0.907636,-0.100604
4.250000,0.177432,0.833917,1.411975,1.164240,0.816084,-0.078289,1.180073,-1.111588,-0.348560,-3.989926,3.133784,1.315005,-3.379227,-1.647103,-0.109983
4.260000,0.189132,0.842023,1.411175,1.175841,0.805125,-0.081709,1.140014,-1.080347,-0.335413,-4.021102,3.113510,1.314046,-2.885837,-2.350023,-0.126346
4.270000,0.200947,0.850021,1.410341,1.187039,0.794476,-0.084997,1.099667,-1.049341,-0.322280,-4.047545,3.086625,1.312692,-2.404681,-3.021584,-0.144892
4.280000,0.212872,0.857914,1.409475,1.197833,0.784137,-0.088155,1.059079,-1.018637,-0.309160,-4.069239,3.053185,1.311141,-1.936356,-3.661082,-0.165761
4.290000,0.224902,0.865705,1.408578,1.208220,0.774102,-0.091181,1.018297,-0.988298,-0.296058,-4.086316,3.013513,1.309368,-1.481455,-4.267809,-0.189093
4.300000,0.237035,0.873397,1.407652,1.218199,0.764369,-0.094076,0.977368,-0.958386,-0.282974,-4.098915,2.967940,1.307350,-1.040576,-4.841060,-0.215028
4.310000,0.249265,0.880993,1.406697,1.227767,0.754933,-0.096840,0.936335,-0.928960,-0.269910,-4.107065,2.916597,1.305184,-0.617123,-5.374875,-0.246859
4.320000,0.261589,0.888496,1.405716,1.236925,0.745789,-0.099474,0.895240,-0.900071,-0.256871,-4.111181,2.860322,1.302545,-0.208538,-5.874445,-0.281188
4.330000,0.274002,0.895910,1.404708,1.245672,0.736930,-0.101978,0.854125,-0.871770,-0.243860,-4.111287,2.799223,1.299552,0.184927,-6.339708,-0.317768
4.340000,0.286501,0.903236,1.403676,1.254008,0.728351,-0.104351,0.813027,-0.844102,-0.230881,-4.107534,2.733643,1.296183,0.563022,-6.770601,-0.356354
4.350000,0.299081,0.910478,1.402622,1.261933,0.720046,-0.106595,0.771986,-0.817111,-0.217938,-4.100078,2.663926,1.292419,0.925494,-7.167063,-0.396701
4.360000,0.311738,0.917638,1.401545,1.269448,0.712006,-0.108710,0.731039,-0.790838,-0.205034,-4.088984,2.590246,1.288285,1.269752,-7.524733,-0.439604
4.370000,0.324469,0.924719,1.400448,1.276554,0.704226,-0.110696,0.690218,-0.765317,-0.192174,-4.074631,2.513353,1.283670,1.598170,-7.848372,-0.483648
4.380000,0.337268,0.931723,1.399331,1.283253,0.696698,-0.112554,0.649557,-0.740581,-0.179362,-4.057074,2.433391,1.278610,1.910786,-8.138444,-0.528459
4.390000,0.350132,0.938653,1.398197,1.289546,0.689412,-0.114284,0.609086,-0.716658,-0.166603,-4.036468,2.350694,1.273100,2.207632,-8.395412,-0.573664
4.400000,0.363057,0.945512,1.397046,1.295435,0.682362,-0.115886,0.568837,-0.693575,-0.153901,-4.012973,2.265591,1.267137,2.488745,-8.619740,-0.618888
4.410000,0.376040,0.952301,1.395880,1.300923,0.675538,-0.117362,0.528837,-0.671355,-0.141262,-3.986675,2.178282,1.260695,2.752372,-8.808757,-0.663042
4.420000,0.389075,0.959023,1.394699,1.306013,0.668932,-0.118712,0.489112,-0.650015,-0.128689,-3.957898,2.089381,1.253846,3.000554,-8.966445,-0.706556
4.430000,0.402159,0.965681,1.393506,1.310706,0.662534,-0.119936,0.449687,-0.629572,-0.116187,-3.926715,1.999055,1.246567,3.233546,-9.093652,-0.749145
4.440000,0.415287,0.972275,1.392301,1.315007,0.656337,-0.121036,0.410585,-0.610038,-0.103759,-3.893276,1.907606,1.238867,3.451601,-9.191224,-0.790523
4.450000,0.428457,0.978808,1.391086,1.318919,0.650331,-0.122011,0.371828,-0.591423,-0.091411,-3.857731,1.815327,1.230761,3.654974,-9.260009,-0.830403
4.460000,0.441665,0.985282,1.389861,1.322445,0.644506,-0.122864,0.333438,-0.573734,-0.079146,-3.820177,1.722423,1.222196,3.842693,-9.298938,-0.866764
4.470000,0.454905,0.991699,1.388629,1.325589,0.638853,-0.123595,0.295431,-0.556975,-0.066968,-3.780870,1.629352,1.213355,4.016387,-9.311009,-0.901269
4.480000,0.468175,0.998060,1.387390,1.328355,0.633363,-0.124204,0.257826,-0.541147,-0.054880,-3.739894,1.536289,1.204177,4.176461,-9.297305,-0.933844
4.490000,0.481471,1.004366,1.386145,1.330747,0.628027,-0.124692,0.220638,-0.526248,-0.042885,-3.697385,1.443488,1.194684,4.323317,-9.258909,-0.964416
4.500000,0.494789,1.010621,1.384896,1.332769,0.622835,-0.125062,0.183883,-0.512275,-0.030987,-3.653471,1.351190,1.184896,4.457361,-9.196902,-0.992911
4.510000,0.508125,1.016824,1.383644,1.334426,0.617778,-0.125313,0.147573,-0.499222,-0.019189,-3.608251,1.259593,1.174757,4.578291,-9.111571,-1.017336
4.520000,0.521476,1.022977,1.382390,1.335722,0.612847,-0.125446,0.111722,-0.487080,-0.007493,-3.561913,1.168994,1.164470,4.687303,-9.004891,-1.039772
4.530000,0.534838,1.029081,1.381136,1.336662,0.608034,-0.125463,0.076338,-0.475839,0.004099,-3.514543,1.079563,1.153968,4.784885,-8.878043,-1.060381
4.540000,0.548208,1.035138,1.379882,1.337251,0.603328,-0.125364,0.041434,-0.465485,0.015586,-3.466252,0.991496,1.143268,4.871528,-8.732206,-1.079325
4.550000,0.561582,1.041148,1.378629,1.337493,0.598721,-0.125151,0.007016,-0.456004,0.026964,-3.417147,0.904978,1.132386,4.947723,-8.568561,-1.096766
4.560000,0.574957,1.047112,1.377379,1.337393,0.594205,-0.124825,-0.026907,-0.447379,0.038232,-3.367321,0.820185,1.121281,5.013711,-8.388411,-1.111453
4.570000,0.588329,1.053032,1.376133,1.336956,0.589771,-0.124387,-0.060328,-0.439594,0.049389,-3.316893,0.737267,1.110098,5.070261,-8.192797,-1.125132
4.580000,0.601695,1.058908,1.374892,1.336188,0.585410,-0.123838,-0.093243,-0.432627,0.060434,-3.265945,0.656377,1.098781,5.117893,-7.982882,-1.138139
4.590000,0.615052,1.064741,1.373656,1.335093,0.581115,-0.123179,-0.125646,-0.426459,0.071365,-3.214563,0.577653,1.087336,5.157128,-7.759833,-1.150808
4.600000,0.628396,1.070531,1.372428,1.333677,0.576878,-0.122411,-0.157533,-0.421066,0.082180,-3.162829,0.501220,1.075765,5.188485,-7.524813,-1.163473
4.610000,0.641724,1.076278,1.371209,1.331944,0.572692,-0.121536,-0.188901,-0.416426,0.092879,-3.110824,0.427225,1.064046,5.212633,-7.279789,-1.175979
4.620000,0.655034,1.081985,1.369998,1.329900,0.568547,-0.120554,-0.219749,-0.412514,0.103461,-3.058606,0.355693,1.052221,5.229926,-7.025024,-1.189211
4.630000,0.668321,1.087649,1.368798,1.327551,0.564439,-0.119467,-0.250073,-0.409304,0.113923,-3.006247,0.286753,1.040258,5.240867,-6.761587,-1.203563
4.640000,0.681584,1.093273,1.367609,1.324901,0.560359,-0.118276,-0.279873,-0.406770,0.124265,-2.953808,0.220486,1.028145,5.245958,-6.490543,-1.219430
4.650000,0.694818,1.098857,1.366433,1.321955,0.556301,-0.116982,-0.309149,-0.404885,0.134486,-2.901345,0.156964,1.015863,5.245703,-6.212959,-1.237205
4.660000,0.708022,1.104400,1.365270,1.318719,0.552259,-0.115586,-0.337901,-0.403620,0.144582,-2.848928,0.096295,1.003414,5.241063,-5.931139,-1.257809
4.670000,0.721192,1.109902,1.364121,1.315199,0.548227,-0.114091,-0.366128,-0.402949,0.154553,-2.796559,0.038412,0.990722,5.232024,-5.644760,-1.281046
4.680000,0.734325,1.115364,1.362988,1.311399,0.544198,-0.112496,-0.393832,-0.402843,0.164396,-2.744301,-0.016588,0.977783,5.219033,-5.354738,-1.307248
4.690000,0.747419,1.120786,1.361872,1.307324,0.540168,-0.110803,-0.421014,-0.403271,0.174108,-2.692190,-0.068674,0.964566,5.202536,-5.061986,-1.336745
4.700000,0.760470,1.126167,1.360772,1.302980,0.536131,-0.109014,-0.447677,-0.404206,0.183686,-2.640260,-0.117822,0.951036,5.182979,-4.767420,-1.369867
4.710000,0.773477,1.131508,1.359692,1.298372,0.532083,-0.107130,-0.473821,-0.405617,0.193128,-2.588568,-0.163961,0.937209,5.161520,-4.473435,-1.408314
4.720000,0.786437,1.136809,1.358630,1.293505,0.528018,-0.105152,-0.499449,-0.407476,0.202429,-2.537069,-0.207224,0.922917,5.137806,-4.179285,-1.450879
4.730000,0.799347,1.142069,1.357589,1.288385,0.523932,-0.103082,-0.524563,-0.409752,0.211585,-2.485818,-0.247548,0.908177,5.112197,-3.885703,-1.497725
4.740000,0.812204,1.147288,1.356569,1.283016,0.519821,-0.100921,-0.549166,-0.412417,0.220591,-2.434830,-0.284943,0.892948,5.085052,-3.593422,-1.549015
4.750000,0.825006,1.152465,1.355571,1.277403,0.515682,-0.098671,-0.573260,-0.415441,0.229442,-2.384121,-0.319424,0.877182,5.056729,-3.303176,-1.604912
4.760000,0.837751,1.157601,1.354596,1.271552,0.511511,-0.096333,-0.596850,-0.418795,0.238133,-2.333733,-0.350953,0.860907,5.028463,-3.017268,-1.667442
4.770000,0.850436,1.162695,1.353644,1.265468,0.507305,-0.093908,-0.619936,-0.422451,0.246658,-2.283592,-0.379710,0.843901,4.999630,-2.734670,-1.734677
4.780000,0.863060,1.167747,1.352718,1.259155,0.503061,-0.091400,-0.642522,-0.426380,0.255009,-2.233742,-0.405660,0.826198,4.970483,-2.455924,-1.806549
4.790000,0.875619,1.172756,1.351817,1.252619,0.498777,-0.088809,-0.664612,-0.430555,0.263179,-2.184183,-0.428843,0.807754,4.941274,-2.181572,-1.882994
4.800000,0.888111,1.177722,1.350942,1.245865,0.494449,-0.086137,-0.686207,-0.434948,0.271161,-2.134915,-0.449307,0.788523,4.912255,-1.912154,-1.963946
4.810000,0.900535,1.182645,1.350094,1.238897,0.490077,-0.083386,-0.707311,-0.439531,0.278948,-2.085972,-0.467044,0.768537,4.884580,-1.649748,-2.051273
4.820000,0.912889,1.187524,1.349274,1.231720,0.485658,-0.080559,-0.727927,-0.444280,0.286529,-2.037262,-0.482253,0.747570,4.857488,-1.393172,-2.142740
4.830000,0.925169,1.192358,1.348483,1.224340,0.481191,-0.077656,-0.748058,-0.449168,0.293896,-1.988820,-0.494928,0.725670,4.831123,-1.142780,-2.238043
4.840000,0.937375,1.197148,1.347722,1.216761,0.476675,-0.074682,-0.767705,-0.454170,0.301039,-1.940637,-0.505131,0.702798,4.805624,-0.898926,-2.336881
4.850000,0.949504,1.201891,1.346990,1.208987,0.472107,-0.071636,-0.786871,-0.459263,0.307949,-1.892704,-0.512929,0.678921,4.781135,-0.661963,-2.438952
4.860000,0.961554,1.206589,1.346289,1.201025,0.467489,-0.068523,-0.805560,-0.464420,0.314615,-1.845042,-0.518338,0.654073,4.758601,-0.433658,-2.545563
4.870000,0.973523,1.211241,1.345620,1.192878,0.462819,-0.065345,-0.823773,-0.469622,0.321027,-1.797564,-0.521564,0.628074,4.737262,-0.212778,-2.654605
4.880000,0.985411,1.215846,1.344982,1.184551,0.458097,-0.062104,-0.841512,-0.474845,0.327173,-1.750293,-0.522619,0.600974,4.717160,0.000495,-2.765579
4.890000,0.997214,1.220403,1.344378,1.176049,0.453322,-0.058802,-0.858779,-0.480067,0.333042,-1.703216,-0.521580,0.572757,4.698339,0.205982,-2.877985
4.900000,1.008931,1.224912,1.343807,1.167377,0.448495,-0.055444,-0.875577,-0.485269,0.338624,-1.656322,-0.518526,0.543411,4.680843,0.403500,-2.991324
4.910000,1.020561,1.229373,1.343269,1.158539,0.443617,-0.052031,-0.891906,-0.490431,0.343907,-1.609618,-0.513489,0.512968,4.665291,0.591655,-3.106082
4.920000,1.032101,1.233784,1.342766,1.149540,0.438687,-0.048567,-0.907770,-0.495533,0.348880,-1.563037,-0.506666,0.481334,4.651080,0.771629,-3.220653
4.930000,1.043551,1.238146,1.342298,1.140385,0.433706,-0.045054,-0.923168,-0.500558,0.353530,-1.516592,-0.498084,0.448558,4.638182,0.943391,-3.334417
4.940000,1.054909,1.242458,1.341865,1.131078,0.428676,-0.041497,-0.938102,-0.505489,0.357847,-1.470269,-0.487826,0.414651,4.626569,1.106910,-3.446755
4.950000,1.066172,1.246719,1.341468,1.121625,0.423597,-0.037899,-0.952573,-0.510309,0.361819,-1.424056,-0.475973,0.379630,4.616213,1.262154,-3.557047
4.960000,1.077341,1.250930,1.341107,1.112029,0.418470,-0.034262,-0.966583,-0.515003,0.365436,-1.377951,-0.462572,0.343526,4.607353,1.408125,-3.664863
4.970000,1.088412,1.255089,1.340783,1.102295,0.413297,-0.030591,-0.980133,-0.519556,0.368686,-1.331917,-0.447795,0.306352,4.599664,1.545876,-3.769370
4.980000,1.099386,1.259196,1.340496,1.092427,0.408080,-0.026890,-0.993222,-0.523955,0.371560,-1.285954,-0.431682,0.268152,4.593084,1.675493,-3.869922
4.990000,1.110260,1.263250,1.340245,1.082432,0.402819,-0.023161,-1.005852,-0.528186,0.374046,-1.240052,-0.414312,0.228969,4.587555,1.797061,-3.965878
5.000000,1.121034,1.267252,1.340032,1.072312,0.397516,-0.019410,-1.018023,-0.532237,0.376136,-1.194200,-0.395767,0.188852,4.583015,1.910668,-4.056592
5.010000,1.131706,1.271200,1.339857,1.062073,0.392175,-0.015640,-1.029736,-0.536097,0.377820,-1.148386,-0.376098,0.147832,4.579348,2.015718,-4.140789
5.020000,1.142275,1.275095,1.339720,1.051719,0.386795,-0.011855,-1.040991,-0.539756,0.379090,-1.102607,-0.355448,0.106029,4.576558,2.113063,-4.218536
5.030000,1.152740,1.278936,1.339620,1.041254,0.381380,-0.008059,-1.051788,-0.543203,0.379938,-1.056852,-0.333862,0.063484,4.574592,2.202872,-4.289267
5.040000,1.163100,1.282723,1.339559,1.030684,0.375932,-0.004258,-1.062128,-0.546430,0.380357,-1.011113,-0.311415,0.020269,4.573398,2.285315,-4.352415
5.050000,1.173354,1.286455,1.339535,1.020013,0.370452,-0.000454,-1.072011,-0.549428,0.380342,-0.965382,-0.288180,-0.023537,4.572922,2.360562,-4.407415
5.060000,1.183500,1.290132,1.339549,1.009246,0.364944,0.003348,-1.081436,-0.552191,0.379884,-0.919640,-0.264212,-0.067904,4.572806,2.428390,-4.452335
5.070000,1.193538,1.293753,1.339602,0.998386,0.359409,0.007142,-1.090403,-0.554711,0.378982,-0.873910,-0.239617,-0.112614,4.573341,2.489410,-4.488142
5.080000,1.203467,1.297320,1.339692,0.987439,0.353851,0.010926,-1.098914,-0.556981,0.377631,-0.828171,-0.214445,-0.157635,4.574511,2.543840,-4.514437
5.090000,1.213287,1.300830,1.339820,0.976409,0.348271,0.014694,-1.106967,-0.558998,0.375829,-0.782418,-0.188761,-0.202870,4.576300,2.591897,-4.530822
5.100000,1.222995,1.304285,1.339986,0.965301,0.342672,0.018441,-1.114562,-0.560755,0.373573,-0.736643,-0.162628,-0.248217,4.578695,2.633799,-4.536898
5.110000,1.232593,1.307684,1.340189,0.954120,0.337056,0.022164,-1.121699,-0.562249,0.370864,-0.690826,-0.136100,-0.293648,4.581281,2.669640,-4.530359
5.120000,1.242078,1.311026,1.340429,0.942869,0.331428,0.025857,-1.128379,-0.563476,0.367701,-0.644998,-0.109249,-0.338873,4.584490,2.699778,-4.512947
5.130000,1.251450,1.314312,1.340706,0.931554,0.325788,0.029516,-1.134599,-0.564433,0.364087,-0.599134,-0.082123,-0.383870,4.588355,2.724445,-4.484497
5.140000,1.260708,1.317542,1.341019,0.920178,0.320140,0.033137,-1.140361,-0.565118,0.360025,-0.553228,-0.054777,-0.428526,4.592909,2.743875,-4.444843
5.150000,1.269853,1.320715,1.341369,0.908748,0.314486,0.036715,-1.145664,-0.565528,0.355518,-0.507274,-0.027262,-0.472729,4.598186,2.758299,-4.393822
5.160000,1.278883,1.323832,1.341754,0.897267,0.308830,0.040246,-1.150506,-0.565663,0.350571,-0.461251,0.000369,-0.516451,4.603937,2.768056,-4.329078
5.170000,1.287798,1.326892,1.342173,0.885739,0.303174,0.043725,-1.154888,-0.565520,0.345191,-0.415180,0.028079,-0.559370,4.610512,2.773261,-4.252904
5.180000,1.296598,1.329895,1.342628,0.874171,0.297521,0.047148,-1.158810,-0.565101,0.339386,-0.369038,0.055820,-0.601471,4.617977,2.774135,-4.165402
5.190000,1.305282,1.332842,1.343116,0.862565,0.291873,0.050511,-1.162269,-0.564404,0.333165,-0.322817,0.083548,-0.642641,4.626402,2.770899,-4.066675
5.200000,1.313849,1.335733,1.343638,0.850927,0.286234,0.053810,-1.165266,-0.563430,0.326537,-0.276506,0.111225,-0.682767,4.635853,2.763771,-3.956827
5.210000,1.322300,1.338567,1.344192,0.839261,0.280605,0.057041,-1.167799,-0.562180,0.319512,-0.230098,0.138800,-0.721826,4.646440,2.753251,-3.833788
5.220000,1.330634,1.341345,1.344778,0.827572,0.274991,0.060199,-1.169867,-0.560655,0.312105,-0.183576,0.166266,-0.759505,4.658184,2.739246,-3.700099
5.230000,1.338851,1.344067,1.345396,0.815865,0.269393,0.063282,-1.171470,-0.558855,0.304327,-0.136930,0.193574,-0.795794,4.671147,2.721943,-3.556128
5.240000,1.346951,1.346733,1.346044,0.804144,0.263815,0.066285,-1.172605,-0.556784,0.296194,-0.090148,0.220694,-0.830594,4.685393,2.701529,-3.402246
5.250000,1.354934,1.349343,1.346721,0.792415,0.258258,0.069204,-1.173272,-0.554442,0.287720,-0.043218,0.247595,-0.863807,4.700983,2.678188,-3.238822
5.260000,1.362800,1.351898,1.347428,0.780681,0.252727,0.072038,-1.173469,-0.551833,0.278922,0.003855,0.274233,-0.895413,4.718501,2.652501,-3.064367
5.270000,1.370548,1.354398,1.348162,0.768947,0.247223,0.074782,-1.173195,-0.548958,0.269818,0.051134,0.300619,-0.925149,4.737425,2.624212,-2.881335
5.280000,1.378179,1.356843,1.348923,0.757218,0.241748,0.077433,-1.172446,-0.545821,0.260426,0.098608,0.326709,-0.953014,4.757754,2.593460,-2.690322
5.290000,1.385692,1.359233,1.349710,0.745499,0.236307,0.079990,-1.171222,-0.542425,0.250764,0.146294,0.352480,-0.978931,4.779486,2.560382,-2.491923
5.300000,1.393089,1.361569,1.350522,0.733795,0.230901,0.082448,-1.169519,-0.538773,0.240854,0.194203,0.377910,-1.002829,4.802621,2.525118,-2.286735
5.310000,1.400368,1.363851,1.351359,0.722111,0.225532,0.084806,-1.167337,-0.534868,0.230714,0.242309,0.402958,-1.024695,4.828198,2.488256,-2.074079
5.320000,1.407531,1.366080,1.352218,0.710450,0.220204,0.087061,-1.164672,-0.530715,0.220367,0.290725,0.427648,-1.044350,4.855047,2.449429,-1.855982
5.330000,1.414577,1.368255,1.353100,0.698819,0.214919,0.089213,-1.161522,-0.526317,0.209834,0.339414,0.451940,-1.061799,4.883040,2.408718,-1.633197
5.340000,1.421508,1.370378,1.354002,0.687221,0.209679,0.091258,-1.157883,-0.521678,0.199139,0.388389,0.475816,-1.077001,4.912049,2.366207,-1.406477
5.350000,1.428322,1.372449,1.354924,0.675663,0.204486,0.093195,-1.153753,-0.516802,0.188302,0.437658,0.499259,-1.089918,4.941944,2.321978,-1.176573
5.360000,1.435021,1.374468,1.355866,0.664148,0.199343,0.095023,-1.149130,-0.511694,0.177348,0.487171,0.522232,-1.100544,4.974093,2.276574,-0.943729
5.370000,1.441605,1.376436,1.356825,0.652682,0.194253,0.096742,-1.144009,-0.506359,0.166299,0.537075,0.544764,-1.108810,5.006689,2.229562,-0.709268
5.380000,1.448075,1.378353,1.357800,0.641270,0.189217,0.098349,-1.138387,-0.500800,0.155179,0.587305,0.566818,-1.114727,5.039418,2.180968,-0.474006
5.390000,1.454431,1.380220,1.358791,0.629916,0.184238,0.099845,-1.132261,-0.495024,0.144012,0.637862,0.588379,-1.118290,5.071970,2.130820,-0.238755
5.400000,1.460673,1.382038,1.359797,0.618626,0.179317,0.101229,-1.125629,-0.489035,0.132821,0.688743,0.609430,-1.119505,5.104031,2.079144,-0.004332
5.410000,1.466803,1.383807,1.360815,0.607405,0.174458,0.102501,-1.118486,-0.482837,0.121630,0.739871,0.629940,-1.118369,5.137051,2.026390,0.228115
5.420000,1.472822,1.385528,1.361846,0.596258,0.169661,0.103662,-1.110830,-0.476438,0.110462,0.791401,0.649933,-1.114935,5.168740,1.972110,0.458147
5.430000,1.478729,1.387200,1.362888,0.585190,0.164930,0.104711,-1.102657,-0.469841,0.099339,0.843239,0.669377,-1.109217,5.198574,1.916278,0.684990
5.440000,1.484526,1.388826,1.363940,0.574207,0.160265,0.105649,-1.093965,-0.463052,0.088285,0.895364,0.688254,-1.101249,5.226022,1.858868,0.907872
5.450000,1.490213,1.390406,1.365001,0.563313,0.155669,0.106477,-1.084749,-0.456077,0.077321,0.947750,0.706549,-1.091075,5.250559,1.799856,1.126018
5.460000,1.495792,1.391940,1.366069,0.552513,0.151144,0.107196,-1.075009,-0.448923,0.066471,1.000295,0.724231,-1.078703,5.273394,1.739572,1.337537
5.470000,1.501264,1.393429,1.367144,0.541814,0.146691,0.107807,-1.064743,-0.441595,0.055754,1.053126,0.741319,-1.064295,5.292050,1.677591,1.542911
5.480000,1.506629,1.394874,1.368225,0.531220,0.142313,0.108311,-1.053946,-0.434099,0.045192,1.106120,0.757777,-1.047867,5.305786,1.613845,1.741502
5.490000,1.511889,1.396276,1.369310,0.520737,0.138010,0.108711,-1.042620,-0.426441,0.034803,1.159223,0.773589,-1.029490,5.313862,1.548264,1.932675
5.500000,1.517044,1.397635,1.370399,0.510370,0.133784,0.109008,-1.030762,-0.418629,0.024608,1.212376,0.788736,-1.009240,5.315537,1.480779,2.115793
5.510000,1.522096,1.398952,1.371490,0.500124,0.129638,0.109204,-1.018373,-0.410669,0.014625,1.265453,0.803188,-0.987135,5.311505,1.411583,2.288510
5.520000,1.527047,1.400228,1.372583,0.490004,0.125571,0.109301,-1.005453,-0.402568,0.004871,1.318515,0.816949,-0.963424,5.299417,1.340314,2.452108
5.530000,1.531897,1.401463,1.373676,0.480016,0.121587,0.109302,-0.992003,-0.394332,-0.004638,1.371412,0.829987,-0.938125,5.278356,1.266871,2.606160
5.540000,1.536648,1.402660,1.374768,0.470166,0.117685,0.109209,-0.978026,-0.385971,-0.013886,1.424049,0.842279,-0.911334,5.247408,1.191153,2.750238
5.550000,1.541301,1.403817,1.375860,0.460458,0.113868,0.109025,-0.963523,-0.377489,-0.022860,1.476324,0.853802,-0.883155,5.205656,1.113060,2.883916
5.560000,1.545857,1.404937,1.376949,0.450897,0.110136,0.108753,-0.948501,-0.368897,-0.031544,1.528088,0.864526,-0.853612,5.153066,1.032651,3.004753
5.570000,1.550319,1.406020,1.378034,0.441489,0.106490,0.108395,-0.932964,-0.360202,-0.039928,1.579303,0.874439,-0.823006,5.087733,0.949646,3.114581
5.580000,1.554688,1.407067,1.379116,0.432239,0.102932,0.107955,-0.916917,-0.351411,-0.048001,1.629797,0.883510,-0.791358,5.008634,0.863923,3.213219
5.590000,1.558964,1.408079,1.380193,0.423153,0.099462,0.107436,-0.900371,-0.342534,-0.055752,1.679427,0.891708,-0.758780,4.914744,0.775362,3.300486
5.600000,1.563151,1.409057,1.381265,0.414234,0.096082,0.106842,-0.883332,-0.333580,-0.063174,1.728039,0.899007,-0.725387,4.805040,0.683842,3.376202
5.610000,1.567250,1.410001,1.382330,0.405488,0.092791,0.106174,-0.865814,-0.324557,-0.070257,1.775461,0.905370,-0.691216,4.678759,0.589376,3.438200
5.620000,1.571262,1.410913,1.383388,0.396919,0.089591,0.105437,-0.847828,-0.315476,-0.076996,1.821543,0.910778,-0.656573,4.534586,0.491693,3.488527
5.630000,1.575189,1.411793,1.384438,0.388532,0.086482,0.104635,-0.829388,-0.306345,-0.083387,1.866090,0.915192,-0.621485,4.371463,0.390659,3.527247
5.640000,1.579033,1.412643,1.385480,0.380333,0.083464,0.103771,-0.810512,-0.297175,-0.089425,1.908906,0.918579,-0.586067,4.188335,0.286135,3.554420
5.650000,1.582796,1.413463,1.386514,0.372324,0.080538,0.102848,-0.791216,-0.287977,-0.095108,1.949786,0.920903,-0.550434,3.984147,0.177986,3.570110
5.660000,1.586480,1.414254,1.387537,0.364510,0.077704,0.101870,-0.771523,-0.278761,-0.100433,1.988514,0.922110,-0.514637,3.757876,0.066496,3.572721
5.670000,1.590087,1.415017,1.388551,0.356894,0.074963,0.100840,-0.751454,-0.269539,-0.105400,2.024865,0.922201,-0.478943,3.508430,-0.048944,3.564175
5.680000,1.593619,1.415754,1.389554,0.349482,0.072314,0.099763,-0.731034,-0.260321,-0.110012,2.058601,0.921117,-0.443390,3.234747,-0.168523,3.544738
5.690000,1.597077,1.416464,1.390546,0.342275,0.069757,0.098641,-0.710292,-0.251120,-0.114269,2.089476,0.918816,-0.408084,2.935768,-0.292429,3.514675
5.700000,1.600465,1.417149,1.391527,0.335277,0.067291,0.097479,-0.689255,-0.241949,-0.118175,2.117229,0.915254,-0.373131,2.610434,-0.420850,3.474251
5.710000,1.603783,1.417810,1.392495,0.328491,0.064917,0.096279,-0.667958,-0.232820,-0.121733,2.141580,0.910350,-0.338588,2.258000,-0.553121,3.422611
5.720000,1.607035,1.418448,1.393452,0.321918,0.062635,0.095045,-0.646436,-0.223747,-0.124948,2.162280,0.904136,-0.304661,1.877052,-0.690387,3.361277
5.730000,1.610222,1.419063,1.394396,0.315562,0.060442,0.093781,-0.624726,-0.214742,-0.127828,2.179023,0.896524,-0.271394,1.466490,-0.832943,3.290652
5.740000,1.613347,1.419657,1.395328,0.309424,0.058340,0.092490,-0.602870,-0.205821,-0.130379,2.191507,0.887459,-0.238877,1.025216,-0.981079,3.211139
5.750000,1.616412,1.420230,1.396246,0.303505,0.056326,0.091175,-0.580911,-0.196998,-0.132608,2.199421,0.876883,-0.207199,0.552130,-1.135089,3.123141
5.760000,1.619418,1.420784,1.397151,0.297806,0.054399,0.089839,-0.558889,-0.188283,-0.134526,2.203184,0.865234,-0.176421,0.027339,-1.307841,3.026554
5.770000,1.622369,1.421318,1.398043,0.292327,0.052559,0.088485,-0.536865,-0.179699,-0.136140,2.200701,0.851271,-0.146671,-0.529160,-1.485513,2.922348
5.780000,1.625265,1.421835,1.398921,0.287069,0.050805,0.087117,-0.514895,-0.171264,-0.137463,2.192499,0.835512,-0.117998,-1.116163,-1.666857,2.810988
5.790000,1.628111,1.422335,1.399785,0.282029,0.049133,0.085737,-0.493035,-0.162995,-0.138504,2.178280,0.817926,-0.090473,-1.732468,-1.850625,2.692937
5.800000,1.630907,1.422818,1.400635,0.277207,0.047544,0.084348,-0.471350,-0.154911,-0.139276,2.157756,0.798496,-0.064160,-2.376873,-2.035572,2.568660
5.810000,1.633655,1.423286,1.401472,0.272597,0.046032,0.082952,-0.449751,-0.146937,-0.139791,2.144634,0.785848,-0.039122,-3.401295,-2.438495,2.438685
5.820000,1.636359,1.423739,1.402294,0.268206,0.044601,0.081553,-0.428491,-0.139207,-0.140063,2.105553,0.759553,-0.015407,-4.408172,-2.813402,2.303405
5.830000,1.639020,1.424178,1.403103,0.264026,0.043247,0.080152,-0.407672,-0.131758,-0.140104,2.056677,0.729766,0.006930,-5.353062,-3.132346,2.163276
5.840000,1.641641,1.424604,1.403897,0.260051,0.041965,0.078751,-0.387388,-0.124621,-0.139929,1.998847,0.697186,0.027844,-6.191522,-3.367380,2.018754
5.850000,1.644222,1.425018,1.404678,0.256276,0.040753,0.077354,-0.367721,-0.117820,-0.139552,1.933349,0.662792,0.047292,-6.879111,-3.490557,1.870296
5.860000,1.646767,1.425419,1.405445,0.252694,0.039608,0.075961,-0.348740,-0.111367,-0.138988,1.861916,0.627841,0.065238,-7.371387,-3.473930,1.718358
5.870000,1.649277,1.425810,1.406197,0.249299,0.038525,0.074575,-0.330495,-0.105260,-0.138253,1.786721,0.593872,0.081649,-7.623909,-3.289552,1.563397
5.880000,1.651753,1.426190,1.406936,0.246082,0.037501,0.073196,-0.313010,-0.099481,-0.137360,1.710385,0.562702,0.096497,-7.592233,-2.909476,1.405869
5.890000,1.654199,1.426560,1.407661,0.243036,0.036534,0.071828,-0.296281,-0.093990,-0.136328,1.635972,0.536428,0.109759,-7.231918,-2.305756,1.246230
5.900000,1.656615,1.426921,1.408373,0.240154,0.035621,0.070470,-0.280272,-0.088728,-0.135171,1.566990,0.517426,0.121416,-6.498522,-1.450445,1.084936
5.910000,1.659002,1.427273,1.409071,0.237429,0.034759,0.069125,-0.264910,-0.083608,-0.133905,1.507393,0.508351,0.131454,-5.347604,-0.315596,0.922445
5.920000,1.661364,1.427616,1.409755,0.234854,0.033949,0.067793,-0.250079,-0.078518,-0.132547,1.461578,0.512139,0.139863,-3.734721,1.126739,0.759213
5.930000,1.663700,1.427952,1.410427,0.232426,0.033189,0.066474,-0.235617,-0.073312,-0.131113,1.434387,0.532004,0.146637,-1.615431,2.904505,0.595696
5.940000,1.666013,1.428280,1.411085,0.230141,0.032483,0.065170,-0.221311,-0.067813,-0.129620,1.431105,0.571440,0.151777,1.054708,5.045650,0.432350
5.950000,1.668303,1.428602,1.411730,0.228000,0.031835,0.063882,-0.206896,-0.061806,-0.128083,1.457465,0.634221,0.155287,4.320137,7.578121,0.269631
5.960000,1.670573,1.428917,1.412362,0.226005,0.031250,0.062609,-0.192043,-0.055037,-0.126519,1.519641,0.724400,0.157174,8.225299,10.529864,0.107998
5.970000,1.672824,1.429227,1.412982,0.224162,0.030737,0.061352,-0.176361,-0.047212,-0.124945,1.624252,0.846309,0.157452,12.814635,13.928827,-0.052096
5.980000,1.675057,1.429532,1.413590,0.222482,0.030310,0.060110,-0.159393,-0.037990,-0.123376,1.778362,1.004561,0.156138,18.132588,17.802955,-0.210192
5.990000,1.677274,1.429834,1.414184,0.220980,0.029984,0.058884,-0.140604,-0.026983,-0.121827,1.989480,1.204045,0.153256,24.223599,22.180197,-0.365835
6.000000,1.679477,1.430132,1.414767,0.219678,0.029778,0.057673,-0.119387,-0.013754,-0.120316,2.265559,1.449935,0.148831,31.132110,27.088499,-0.518568
