time,x,y,z,vx,vy,vz,ax,ay,az,jx,jy,jz,sx,sy,sz
0.000000,-1.335270,-1.987418,1.413941,-0.018011,-0.003806,0.005145,0.768534,-0.209067,-0.065140,-24.921734,4.225075,0.578975,693.713506,-43.586381,-42.088612
0.010000,-1.335416,-1.987465,1.413990,-0.011461,-0.005692,0.004516,0.552245,-0.168925,-0.061374,-18.507383,3.810239,0.182308,590.903878,-39.424423,-37.295856
0.020000,-1.335505,-1.987530,1.414032,-0.006769,-0.007198,0.003906,0.395131,-0.132728,-0.061339,-13.069588,3.435727,-0.167946,498.315066,-35.520399,-32.804118
0.030000,-1.335555,-1.987608,1.414068,-0.003392,-0.008359,0.003278,0.287930,-0.100085,-0.064588,-8.508760,3.098994,-0.474744,415.422724,-31.867503,-28.603140
0.040000,-1.335576,-1.987696,1.414097,-0.000872,-0.009210,0.002604,0.222348,-0.070630,-0.070699,-4.730559,2.797562,-0.740943,341.702505,-28.458928,-24.682663
0.050000,-1.335574,-1.987792,1.414119,0.001169,-0.009781,0.001856,0.191008,-0.044024,-0.079280,-1.645884,2.529023,-0.969298,276.630061,-25.287869,-21.032429
0.060000,-1.335553,-1.987891,1.414134,0.003040,-0.010099,0.001012,0.187399,-0.019948,-0.089967,0.829120,2.291036,-1.162459,219.681045,-22.347519,-17.642179
0.070000,-1.335513,-1.987993,1.414139,0.004990,-0.010187,0.000051,0.205821,0.001891,-0.102421,2.773067,2.081326,-1.322974,170.331111,-19.631073,-14.501654
0.080000,-1.335453,-1.988094,1.414134,0.007214,-0.010067,-0.001042,0.241335,0.021766,-0.116326,4.259325,1.897691,-1.453290,128.055912,-17.131724,-11.600595
0.090000,-1.335368,-1.988193,1.414118,0.009860,-0.009758,-0.002279,0.289709,0.039925,-0.131394,5.356020,1.737991,-1.555750,92.331100,-14.842667,-8.928744
0.100000,-1.335254,-1.988289,1.414088,0.013039,-0.009274,-0.003672,0.347367,0.056598,-0.147356,6.126033,1.600159,-1.632595,62.632329,-12.757094,-6.475842
0.110000,-1.335105,-1.988378,1.414044,0.016828,-0.008630,-0.005229,0.411334,0.071994,-0.163967,6.627005,1.482194,-1.685962,38.435251,-10.868201,-4.231630
0.120000,-1.334915,-1.988461,1.413983,0.021278,-0.007838,-0.006953,0.479186,0.086302,-0.181004,6.911330,1.382162,-1.717889,19.215520,-9.169181,-2.185850
0.130000,-1.334677,-1.988535,1.413904,0.026418,-0.006907,-0.008849,0.548996,0.099691,-0.198260,7.026159,1.298200,-1.730307,4.448789,-7.653227,-0.328243
0.140000,-1.334384,-1.988599,1.413806,0.032260,-0.005846,-0.010919,0.619284,0.112314,-0.215551,7.013401,1.228510,-1.725047,-6.389289,-6.313535,1.351449
0.150000,-1.334029,-1.988651,1.413685,0.038802,-0.004663,-0.013160,0.688962,0.124303,-0.232708,6.909721,1.171364,-1.703836,-13.823062,-5.143297,2.863487
0.160000,-1.333606,-1.988691,1.413542,0.046035,-0.003362,-0.015572,0.757281,0.135777,-0.249580,6.746540,1.125102,-1.668301,-18.376875,-4.135708,4.218127
0.170000,-1.333107,-1.988718,1.413373,0.053942,-0.001949,-0.018150,0.823782,0.146836,-0.266031,6.550035,1.088131,-1.619964,-20.575077,-3.283962,5.425629
0.180000,-1.332525,-1.988730,1.413178,0.062503,-0.000426,-0.020891,0.888241,0.157566,-0.281941,6.341142,1.058926,-1.560245,-20.942014,-2.581252,6.496252
0.190000,-1.331854,-1.988726,1.412955,0.071699,0.001202,-0.023787,0.950616,0.168036,-0.297203,6.135551,1.036031,-1.490461,-20.002034,-2.020773,7.440253
0.200000,-1.331089,-1.988706,1.412702,0.081509,0.002934,-0.026832,1.010998,0.178303,-0.311721,5.943710,1.018059,-1.411828,-18.279482,-1.595718,8.267893
0.210000,-1.330223,-1.988667,1.412418,0.091865,0.004765,-0.030018,1.071353,0.188477,-0.325419,5.936605,1.009977,-1.325971,-20.485994,-1.458118,9.002409
0.220000,-1.329250,-1.988610,1.412101,0.102872,0.006700,-0.033337,1.129661,0.198505,-0.338217,5.721745,0.995646,-1.232684,-22.445899,-1.422881,9.639491
0.230000,-1.328163,-1.988533,1.411751,0.114451,0.008735,-0.036780,1.185726,0.208390,-0.350053,5.488470,0.981266,-1.133477,-24.170817,-1.463751,10.187808
0.240000,-1.326959,-1.988435,1.411365,0.126579,0.010868,-0.040335,1.239377,0.218128,-0.360870,5.239073,0.966205,-1.029195,-25.672364,-1.554474,10.656030
0.250000,-1.325630,-1.988315,1.410944,0.139230,0.013097,-0.043993,1.290461,0.227710,-0.370622,4.975729,0.950097,-0.920595,-26.962159,-1.668793,11.052826
0.260000,-1.324172,-1.988173,1.410485,0.152378,0.015424,-0.047743,1.338879,0.237048,-0.379283,4.703024,0.925685,-0.809574,-28.115660,-1.599793,11.417840
0.270000,-1.322581,-1.988006,1.409989,0.165997,0.017840,-0.051575,1.384487,0.246226,-0.386803,4.416920,0.910059,-0.693814,-29.072828,-1.524000,11.724975
0.280000,-1.320851,-1.987816,1.409453,0.180058,0.020348,-0.055476,1.427189,0.255252,-0.393150,4.122210,0.895242,-0.575251,-29.837463,-1.437281,11.979106
0.290000,-1.318978,-1.987599,1.408879,0.194531,0.022945,-0.059434,1.466908,0.264134,-0.398300,3.820800,0.881364,-0.454392,-30.413366,-1.335502,12.185111
0.300000,-1.316959,-1.987356,1.408265,0.209386,0.025630,-0.063437,1.503589,0.272883,-0.402232,3.514559,0.868596,-0.331693,-30.804337,-1.214529,12.347866
0.310000,-1.314789,-1.987086,1.407610,0.224593,0.028402,-0.067474,1.537168,0.281489,-0.404941,3.203349,0.855105,-0.208639,-30.964483,-1.018559,12.499441
0.320000,-1.312466,-1.986788,1.406915,0.240120,0.031260,-0.071532,1.567653,0.289992,-0.406400,2.893621,0.845988,-0.083041,-30.953384,-0.801455,12.614190
0.330000,-1.309986,-1.986461,1.406179,0.255936,0.034202,-0.075598,1.595044,0.298416,-0.406598,2.584820,0.839139,0.043527,-30.780926,-0.565409,12.693660
0.340000,-1.307347,-1.986104,1.405403,0.272010,0.037228,-0.079660,1.619358,0.306783,-0.405528,2.278508,0.834736,0.170720,-30.456993,-0.312614,12.739396
0.350000,-1.304545,-1.985716,1.404586,0.288313,0.040338,-0.083704,1.640627,0.315119,-0.403183,1.976152,0.832935,0.298208,-29.991473,-0.045263,12.752946
0.360000,-1.301580,-1.985297,1.403729,0.304813,0.043530,-0.087719,1.658896,0.323450,-0.399571,1.678896,0.833737,0.424949,-29.388667,0.237856,12.754244
0.370000,-1.298448,-1.984845,1.402832,0.321481,0.046807,-0.091691,1.674227,0.331804,-0.394685,1.388533,0.837573,0.552367,-28.664729,0.530727,12.724198
0.380000,-1.295150,-1.984360,1.401896,0.338288,0.050167,-0.095608,1.686693,0.340211,-0.388526,1.105970,0.844375,0.679326,-27.830227,0.830740,12.662103
0.390000,-1.291682,-1.983841,1.400920,0.355206,0.053611,-0.099457,1.696376,0.348701,-0.381101,0.832262,0.854203,0.805500,-26.895729,1.135286,12.567253
0.400000,-1.288045,-1.983288,1.399907,0.372207,0.057141,-0.103226,1.703371,0.357305,-0.372419,0.568354,0.867088,0.930559,-25.871806,1.441753,12.438943
0.410000,-1.284238,-1.982698,1.398856,0.389264,0.060758,-0.106902,1.707782,0.366055,-0.362496,0.315373,0.883193,1.054013,-24.776224,1.743567,12.280321
0.420000,-1.280260,-1.982072,1.397769,0.406354,0.064463,-0.110472,1.709716,0.374979,-0.351345,0.073381,0.902127,1.175876,-23.611473,2.042569,12.086358
0.430000,-1.276111,-1.981409,1.396647,0.423451,0.068258,-0.113924,1.709289,0.384107,-0.338985,-0.156658,0.924028,1.295618,-22.387242,2.336633,11.855878
0.440000,-1.271791,-1.980707,1.395491,0.440532,0.072146,-0.117248,1.706624,0.393469,-0.325441,-0.374198,0.948836,1.412868,-21.113218,2.623634,11.587704
0.450000,-1.267300,-1.979966,1.394302,0.457576,0.076128,-0.120429,1.701849,0.403093,-0.310738,-0.578788,0.976470,1.527243,-19.799089,2.901448,11.280660
0.460000,-1.262640,-1.979184,1.393083,0.474562,0.080208,-0.123459,1.695099,0.413010,-0.294903,-0.769548,1.007042,1.638668,-18.467920,3.162518,10.925486
0.470000,-1.257809,-1.978361,1.391834,0.491472,0.084389,-0.126324,1.686502,0.423243,-0.277977,-0.947475,1.039920,1.745979,-17.114384,3.410817,10.530078
0.480000,-1.252810,-1.977496,1.390557,0.508287,0.088674,-0.129015,1.676195,0.433817,-0.259998,-1.111788,1.075211,1.849134,-15.746531,3.644885,10.094251
0.490000,-1.247644,-1.976587,1.389254,0.524991,0.093067,-0.131520,1.664312,0.444755,-0.241009,-1.262385,1.112765,1.947729,-14.372411,3.863263,9.617816
0.500000,-1.242311,-1.975634,1.387927,0.541568,0.097571,-0.133832,1.650993,0.456079,-0.221060,-1.399242,1.152419,2.041355,-13.000075,4.064491,9.100589
0.510000,-1.236813,-1.974635,1.386578,0.558006,0.102190,-0.135939,1.636381,0.467812,-0.200194,-1.521717,1.194209,2.130163,-11.655293,4.241669,8.528266
0.520000,-1.231151,-1.973590,1.385209,0.574292,0.106928,-0.137833,1.620603,0.479969,-0.178476,-1.631610,1.237431,2.212419,-10.326225,4.399445,7.916505
0.530000,-1.225328,-1.972496,1.383822,0.590414,0.111791,-0.139506,1.603792,0.492565,-0.155967,-1.728314,1.282130,2.288367,-9.018750,4.537024,7.266847
0.540000,-1.219344,-1.971354,1.382420,0.606365,0.116781,-0.140950,1.586080,0.505615,-0.132731,-1.812076,1.328101,2.357635,-7.738748,4.653614,6.580835
0.550000,-1.213201,-1.970160,1.381004,0.622134,0.121905,-0.142158,1.567593,0.519131,-0.108838,-1.883200,1.375130,2.419867,-6.492099,4.748421,5.860010
0.560000,-1.206902,-1.968915,1.379577,0.637714,0.127165,-0.143125,1.548465,0.533123,-0.084352,-1.941259,1.423179,2.475264,-5.304626,4.815990,5.092280
0.570000,-1.200447,-1.967617,1.378142,0.653101,0.132569,-0.143844,1.528807,0.547596,-0.059358,-1.988545,1.471582,2.522221,-4.159824,4.860761,4.294491
0.580000,-1.193840,-1.966263,1.376701,0.668289,0.138119,-0.144310,1.508732,0.562556,-0.033935,-2.024609,1.520317,2.561064,-3.061131,4.882511,3.469853
0.590000,-1.187082,-1.964854,1.375257,0.683274,0.143821,-0.144521,1.488350,0.578003,-0.008165,-2.049932,1.569154,2.591539,-2.011984,4.881016,2.621577
0.600000,-1.180175,-1.963386,1.373812,0.698055,0.149681,-0.144473,1.467767,0.593938,0.017867,-2.065026,1.617859,2.613427,-1.015821,4.856054,1.752874
0.610000,-1.173122,-1.961860,1.372368,0.712629,0.155702,-0.144163,1.447090,0.610360,0.044078,-2.069677,1.666327,2.626869,-0.095274,4.804105,0.858627
0.620000,-1.165924,-1.960272,1.370929,0.726997,0.161889,-0.143591,1.426404,0.627263,0.070374,-2.066266,1.714010,2.630929,0.767763,4.728648,-0.048605
0.630000,-1.158583,-1.958621,1.369497,0.741158,0.168248,-0.142756,1.405793,0.644638,0.096666,-2.054517,1.760822,2.625868,1.572203,4.629863,-0.964591
0.640000,-1.151101,-1.956906,1.368075,0.755113,0.174784,-0.141658,1.385339,0.662475,0.122861,-2.035021,1.806530,2.611622,2.316957,4.507934,-1.885098
0.650000,-1.143481,-1.955125,1.366665,0.768865,0.181499,-0.140299,1.365116,0.680764,0.148868,-2.008380,1.850904,2.588165,3.000938,4.363040,-2.805897
0.660000,-1.135724,-1.953276,1.365270,0.782416,0.188400,-0.138682,1.345200,0.699489,0.174594,-1.974597,1.893786,2.555556,3.607620,4.193588,-3.723747
0.670000,-1.127833,-1.951356,1.363892,0.795770,0.195491,-0.136809,1.325644,0.718633,0.199948,-1.935742,1.934781,2.513762,4.153244,4.001753,-4.633305
0.680000,-1.119810,-1.949365,1.362535,0.808930,0.202774,-0.134684,1.306502,0.738178,0.224839,-1.891733,1.973747,2.462932,4.638613,3.787931,-5.530218
0.690000,-1.111655,-1.947300,1.361200,0.821902,0.210255,-0.132314,1.287824,0.758101,0.249177,-1.843168,2.010467,2.403214,5.064529,3.552522,-6.410133
0.700000,-1.103372,-1.945159,1.359889,0.834689,0.217938,-0.129703,1.269652,0.778379,0.272875,-1.790638,2.044727,2.334801,5.431795,3.295925,-7.268698
0.710000,-1.094962,-1.942941,1.358606,0.847296,0.225824,-0.126859,1.252027,0.798987,0.295843,-1.734342,2.076342,2.257699,5.731541,3.017897,-8.095821
0.720000,-1.086427,-1.940642,1.357353,0.859731,0.233918,-0.123789,1.234974,0.819896,0.318002,-1.675762,2.105046,2.172726,5.975428,2.719555,-8.893592
0.730000,-1.077768,-1.938262,1.356131,0.871998,0.242223,-0.120502,1.218519,0.841077,0.339271,-1.615013,2.130667,2.079937,6.165441,2.401377,-9.658360
0.740000,-1.068988,-1.935797,1.354943,0.884103,0.250741,-0.117006,1.202679,0.862499,0.359575,-1.552626,2.153009,1.979681,6.303569,2.063840,-10.386476
0.750000,-1.060087,-1.933246,1.353792,0.896054,0.259474,-0.113313,1.187470,0.884126,0.378841,-1.489108,2.171881,1.872342,6.391798,1.707419,-11.074291
0.760000,-1.051067,-1.930607,1.352678,0.907855,0.268424,-0.109433,1.172901,0.905924,0.396996,-1.424810,2.187110,1.757939,6.428590,1.332248,-11.707980
0.770000,-1.041930,-1.927877,1.351604,0.919514,0.277593,-0.105377,1.158974,0.927855,0.413980,-1.360531,2.198481,1.637883,6.419890,0.939190,-12.295313
0.780000,-1.032677,-1.925054,1.350571,0.931036,0.286981,-0.101158,1.145689,0.949880,0.429735,-1.296556,2.205836,1.512195,6.368116,0.528764,-12.833886
0.790000,-1.023310,-1.922137,1.349581,0.942430,0.296590,-0.096787,1.133041,0.971958,0.444206,-1.233304,2.209001,1.381375,6.275687,0.101488,-13.321295
0.800000,-1.013829,-1.919122,1.348636,0.953699,0.306420,-0.092278,1.121019,0.994046,0.457347,-1.171169,2.207811,1.245948,6.145022,-0.342117,-13.755136
0.810000,-1.004236,-1.916007,1.347736,0.964852,0.316471,-0.087644,1.109612,1.016100,0.469107,-1.110577,2.202145,1.105991,5.979913,-0.802540,-14.121177
0.820000,-0.994532,-1.912792,1.346883,0.975894,0.326742,-0.082900,1.098802,1.038073,0.479455,-1.051744,2.191754,0.963186,5.781238,-1.278133,-14.430289
0.830000,-0.984719,-1.909472,1.346078,0.986830,0.337232,-0.078060,1.088570,1.059919,0.488361,-0.995057,2.176534,0.817578,5.551247,-1.768251,-14.681518
0.840000,-0.974796,-1.906046,1.345322,0.997667,0.347940,-0.073138,1.078893,1.081587,0.495799,-0.940816,2.156343,0.669752,5.292192,-2.272254,-14.873906
0.850000,-0.964766,-1.902512,1.344616,1.008410,0.358863,-0.068149,1.069744,1.103029,0.501751,-0.889302,2.131045,0.520299,5.006323,-2.789500,-15.006498
0.860000,-0.954628,-1.898868,1.343959,1.019063,0.369999,-0.063108,1.061095,1.124192,0.506197,-0.840928,2.100604,0.369381,4.699846,-3.321698,-15.067144
0.870000,-0.944385,-1.895112,1.343354,1.029633,0.381346,-0.058030,1.052915,1.145023,0.509137,-0.795558,2.064677,0.218658,4.370572,-3.865566,-15.067453
0.880000,-0.934036,-1.891241,1.342799,1.040123,0.392899,-0.052930,1.045172,1.165467,0.510571,-0.753587,2.023257,0.068232,4.020268,-4.420173,-15.007840
0.890000,-0.923582,-1.887253,1.342295,1.050538,0.404654,-0.047824,1.037831,1.185469,0.510505,-0.715217,1.976241,-0.081300,3.650701,-4.984587,-14.888720
0.900000,-0.913025,-1.883147,1.341842,1.060881,0.416606,-0.042725,1.030855,1.204973,0.508950,-0.680631,1.923536,-0.229346,3.263636,-5.557880,-14.710506
0.910000,-0.902365,-1.878920,1.341440,1.071156,0.428751,-0.037649,1.024204,1.223922,0.505921,-0.650157,1.865207,-0.375681,2.864882,-6.142903,-14.464360
0.920000,-0.891602,-1.874571,1.341089,1.081366,0.441083,-0.032611,1.017839,1.242257,0.501446,-0.623562,1.800825,-0.518856,2.451669,-6.734479,-14.161083
0.930000,-0.880738,-1.870098,1.340788,1.091514,0.453594,-0.027625,1.011719,1.259919,0.495555,-0.601167,1.730500,-0.658718,2.025269,-7.331215,-13.802225
0.940000,-0.869772,-1.865499,1.340536,1.101601,0.466279,-0.022705,1.005801,1.276848,0.488284,-0.583097,1.654188,-0.794720,1.586952,-7.931717,-13.389332
0.950000,-0.858706,-1.860772,1.340334,1.111630,0.479128,-0.017864,1.000042,1.292983,0.479675,-0.569464,1.571858,-0.926329,1.137991,-8.534590,-12.923954
0.960000,-0.847540,-1.855916,1.340179,1.121602,0.492135,-0.013116,0.994396,1.308266,0.469771,-0.560457,1.483669,-1.053307,0.681895,-9.142889,-12.400611
0.970000,-0.836274,-1.850929,1.340071,1.131518,0.505291,-0.008473,0.988817,1.322636,0.458627,-0.555953,1.389202,-1.174494,0.217424,-9.750227,-11.828738
0.980000,-0.824910,-1.845809,1.340009,1.141379,0.518585,-0.003947,0.983261,1.336030,0.446301,-0.556133,1.288674,-1.289728,-0.254425,-10.354667,-11.210744
0.990000,-0.813447,-1.840557,1.339992,1.151184,0.532008,0.000450,0.977679,1.348389,0.432854,-0.561063,1.182125,-1.398563,-0.732655,-10.954268,-10.549038
1.000000,-0.801886,-1.835169,1.340018,1.160932,0.545549,0.004707,0.972024,1.359653,0.418353,-0.570804,1.069611,-1.500572,-1.216268,-11.547092,-9.846028
1.010000,-0.790228,-1.829645,1.340085,1.170624,0.559197,0.008814,0.966247,1.369764,0.402864,-0.585389,0.951362,-1.595559,-1.704630,-12.135003,-9.098929
1.020000,-0.778474,-1.823985,1.340193,1.180257,0.572940,0.012761,0.960300,1.378661,0.386467,-0.604891,0.827118,-1.682662,-2.196335,-12.711794,-8.315980
1.030000,-0.766623,-1.818186,1.340340,1.189829,0.586766,0.016540,0.954133,1.386287,0.369238,-0.629323,0.697172,-1.761770,-2.690342,-13.275062,-7.500223
1.040000,-0.754678,-1.812249,1.340523,1.199338,0.600661,0.020143,0.947697,1.392586,0.351259,-0.658702,0.561670,-1.832568,-3.185609,-13.822403,-6.654704
1.050000,-0.742637,-1.806173,1.340742,1.208782,0.614613,0.023563,0.940942,1.397502,0.332615,-0.693036,0.420785,-1.894775,-3.681092,-14.351413,-5.782466
1.060000,-0.730502,-1.799957,1.340994,1.218156,0.628607,0.026794,0.933820,1.400985,0.313391,-0.732221,0.274766,-1.948292,-4.178296,-14.861071,-4.882656
1.070000,-0.718274,-1.793600,1.341277,1.227457,0.642628,0.029829,0.926281,1.402981,0.293680,-0.776481,0.123703,-1.992535,-4.673321,-15.347420,-3.962694
1.080000,-0.705953,-1.787104,1.341590,1.236680,0.656661,0.032666,0.918274,1.403443,0.273572,-0.825675,-0.032097,-2.027491,-5.164815,-15.807888,-3.026101
1.090000,-0.693541,-1.780467,1.341930,1.245821,0.670691,0.035300,0.909751,1.402324,0.253161,-0.879761,-0.192360,-2.053013,-5.651422,-16.239900,-2.076399
1.100000,-0.681037,-1.773690,1.342295,1.254873,0.684702,0.037728,0.900663,1.399582,0.232543,-0.938683,-0.356791,-2.068987,-6.131790,-16.640885,-1.117109
1.110000,-0.668444,-1.766773,1.342684,1.263832,0.698678,0.039950,0.890963,1.395174,0.211812,-1.002237,-0.525174,-2.075445,-6.607960,-17.005529,-0.148976
1.120000,-0.655761,-1.759717,1.343094,1.272690,0.712600,0.041965,0.880603,1.389067,0.191067,-1.070659,-0.696904,-2.072083,-7.074767,-17.334334,0.821361
1.130000,-0.642990,-1.752522,1.343523,1.281441,0.726453,0.043772,0.869535,1.381226,0.170403,-1.143695,-0.871734,-2.059023,-7.530442,-17.625061,1.790040
1.140000,-0.630132,-1.745188,1.343968,1.290078,0.740219,0.045373,0.857714,1.371623,0.149918,-1.221225,-1.049271,-2.036301,-7.973215,-17.875473,2.753201
1.150000,-0.617189,-1.737718,1.344429,1.298593,0.753880,0.046771,0.845096,1.360233,0.129709,-1.303111,-1.229102,-2.003990,-8.401318,-18.083331,3.706981
1.160000,-0.604161,-1.730111,1.344903,1.306977,0.767418,0.047969,0.831639,1.347031,0.109870,-1.389096,-1.411097,-1.962247,-8.815525,-18.238604,4.648584
1.170000,-0.591050,-1.722370,1.345388,1.315223,0.780814,0.048970,0.817300,1.332007,0.090495,-1.479246,-1.594068,-1.911124,-9.211211,-18.347803,5.572954
1.180000,-0.577857,-1.714495,1.345882,1.323320,0.794052,0.049780,0.802041,1.315147,0.071678,-1.573252,-1.777895,-1.850859,-9.586295,-18.409642,6.476096
1.190000,-0.564584,-1.706489,1.346383,1.331260,0.807111,0.050406,0.785823,1.296447,0.053508,-1.670896,-1.962099,-1.781686,-9.938695,-18.422837,7.354020
1.200000,-0.551232,-1.698354,1.346889,1.339033,0.819974,0.050853,0.768611,1.275906,0.036073,-1.771943,-2.146186,-1.703876,-10.266331,-18.386106,8.202734
1.210000,-0.537804,-1.690090,1.347400,1.346629,0.832623,0.051130,0.750373,1.253521,0.019459,-1.876158,-2.330128,-1.617662,-10.566492,-18.286104,9.016225
1.220000,-0.524300,-1.681702,1.347912,1.354037,0.845039,0.051245,0.731079,1.229307,0.003746,-1.983205,-2.512276,-1.523585,-10.837803,-18.135084,9.792769
1.230000,-0.510724,-1.673191,1.348424,1.361247,0.857203,0.051208,0.710701,1.203281,-0.010988,-2.092812,-2.692660,-1.421942,-11.078262,-17.933239,10.528620
1.240000,-0.497076,-1.664559,1.348935,1.368248,0.869098,0.051029,0.689215,1.175462,-0.024669,-2.204660,-2.870772,-1.313160,-11.285864,-17.680763,11.220033
1.250000,-0.483360,-1.655809,1.349444,1.375028,0.880707,0.050719,0.666601,1.145875,-0.037229,-2.318413,-3.046107,-1.197702,-11.458606,-17.377847,11.863264
1.260000,-0.469576,-1.646946,1.349949,1.381576,0.892010,0.050288,0.642841,1.114543,-0.048599,-2.433771,-3.218867,-1.075786,-11.592924,-17.006856,12.447433
1.270000,-0.455729,-1.637970,1.350449,1.387881,0.902992,0.049751,0.617922,1.081511,-0.058726,-2.550212,-3.386881,-0.948618,-11.688566,-16.587996,12.976802
1.280000,-0.441820,-1.628887,1.350944,1.393930,0.913635,0.049118,0.591834,1.046820,-0.067555,-2.667408,-3.550476,-0.816442,-11.743718,-16.123642,13.448503
1.290000,-0.427851,-1.619699,1.351432,1.399713,0.923923,0.048404,0.564573,1.010517,-0.075040,-2.784945,-3.709210,-0.679849,-11.756568,-15.616171,13.859662
1.300000,-0.413826,-1.610410,1.351912,1.405218,0.933840,0.047622,0.536136,0.972653,-0.081139,-2.902392,-3.862663,-0.539460,-11.725303,-15.067958,14.207410
1.310000,-0.399748,-1.601023,1.352384,1.410432,0.943371,0.046786,0.506521,0.933284,-0.085814,-3.019852,-4.010308,-0.395498,-11.634125,-14.484729,14.478157
1.320000,-0.385619,-1.591544,1.352847,1.415345,0.952501,0.045910,0.475742,0.892467,-0.089041,-3.135545,-4.152087,-0.249644,-11.496919,-13.865101,14.681062
1.330000,-0.371442,-1.581975,1.353302,1.419943,0.961216,0.045010,0.443815,0.850264,-0.090801,-3.249636,-4.287496,-0.102108,-11.313585,-13.211040,14.814567
1.340000,-0.357221,-1.572321,1.353747,1.424217,0.969502,0.044099,0.410757,0.806740,-0.091080,-3.361663,-4.416200,0.046410,-11.084022,-12.524514,14.877112
1.350000,-0.342959,-1.562586,1.354184,1.428155,0.977346,0.043193,0.376590,0.761963,-0.089872,-3.471163,-4.537884,0.195193,-10.808131,-11.807487,14.867140
1.360000,-0.328659,-1.552775,1.354611,1.431746,0.984737,0.042307,0.341337,0.716009,-0.087172,-3.578213,-4.652020,0.344016,-10.472118,-11.067837,14.770228
1.370000,-0.314325,-1.542893,1.355030,1.434978,0.991663,0.041455,0.305038,0.668948,-0.082996,-3.681067,-4.758886,0.490925,-10.091253,-10.300895,14.599256
1.380000,-0.299961,-1.532944,1.355441,1.437843,0.998113,0.040652,0.267729,0.620857,-0.077361,-3.779894,-4.857952,0.635754,-9.667112,-9.507906,14.354239
1.390000,-0.285569,-1.522932,1.355843,1.440330,1.004077,0.039912,0.229455,0.571816,-0.070291,-3.874270,-4.948962,0.777763,-9.201271,-8.690110,14.035195
1.400000,-0.271155,-1.512864,1.356239,1.442429,1.009546,0.039250,0.190260,0.521906,-0.061817,-3.963786,-5.031675,0.916211,-8.695307,-7.848752,13.642138
1.410000,-0.256722,-1.502743,1.356629,1.444132,1.014512,0.038680,0.150192,0.471210,-0.051974,-4.048468,-5.105949,1.050954,-8.140189,-6.982897,13.160039
1.420000,-0.242274,-1.492575,1.357013,1.445430,1.018968,0.038215,0.109310,0.419816,-0.040816,-4.126944,-5.171361,1.179843,-7.549400,-6.096231,12.605803
1.430000,-0.227815,-1.482365,1.357393,1.446316,1.022907,0.037868,0.067673,0.367812,-0.028397,-4.199346,-5.227809,1.302836,-6.925814,-5.190263,11.981289
1.440000,-0.213349,-1.472119,1.357771,1.446781,1.026323,0.037651,0.025344,0.315290,-0.014781,-4.265361,-5.275107,1.419241,-6.272308,-4.266503,11.288354
1.450000,-0.198881,-1.461841,1.358147,1.446821,1.029211,0.037576,-0.017612,0.262341,-0.000036,-4.324702,-5.313085,1.528381,-5.591757,-3.326460,10.528857
1.460000,-0.184414,-1.451536,1.358523,1.446427,1.031568,0.037654,-0.061130,0.209060,0.015768,-4.377471,-5.341591,1.630273,-4.878058,-2.371525,9.687711
1.470000,-0.169954,-1.441211,1.358901,1.445597,1.033391,0.037895,-0.105137,0.155542,0.032540,-4.422597,-5.360476,1.722690,-4.144163,-1.403340,8.785795
1.480000,-0.155504,-1.430870,1.359281,1.444323,1.034679,0.038307,-0.149558,0.101883,0.050190,-4.460300,-5.369619,1.805800,-3.394048,-0.423428,7.827043
1.490000,-0.141069,-1.420519,1.359667,1.442604,1.035429,0.038901,-0.194318,0.048182,0.068623,-4.490437,-5.368911,1.879054,-2.631686,0.566687,6.815388
1.500000,-0.126653,-1.410164,1.360060,1.440436,1.035642,0.039682,-0.239341,-0.005462,0.087737,-4.512906,-5.358257,1.941944,-1.861053,1.565481,5.754764
1.510000,-0.112261,-1.399808,1.360462,1.437817,1.035320,0.040657,-0.284549,-0.058951,0.107433,-4.527522,-5.337741,1.994624,-1.089199,2.575565,4.633317
1.520000,-0.097898,-1.389459,1.360874,1.434745,1.034464,0.041832,-0.329865,-0.112183,0.127591,-4.534550,-5.306913,2.035185,-0.316646,3.590775,3.472700
1.530000,-0.083568,-1.379121,1.361299,1.431219,1.033078,0.043210,-0.375214,-0.165056,0.148097,-4.533865,-5.265915,2.063967,0.453007,4.609081,2.278782
1.540000,-0.069275,-1.368799,1.361739,1.427241,1.031165,0.044795,-0.420517,-0.217468,0.168830,-4.525512,-5.214728,2.080669,1.216163,5.628454,1.057429
1.550000,-0.055025,-1.358499,1.362195,1.422809,1.028730,0.046587,-0.465699,-0.269316,0.189669,-4.509575,-5.153349,2.085044,1.969223,6.646863,-0.185492
1.560000,-0.040821,-1.348226,1.362671,1.417927,1.025781,0.048588,-0.510682,-0.320498,0.210494,-4.485984,-5.081604,2.077286,2.703806,7.657333,-1.453704
1.570000,-0.026668,-1.337985,1.363168,1.412597,1.022323,0.050797,-0.555394,-0.370915,0.231173,-4.455341,-4.999997,2.056369,3.421683,8.663386,-2.730577
1.580000,-0.012570,-1.327781,1.363688,1.406820,1.018365,0.053211,-0.599765,-0.420465,0.251579,-4.417616,-4.908356,2.022669,4.119841,9.663597,-4.009069
1.590000,0.001467,-1.317620,1.364233,1.400603,1.013917,0.055827,-0.643724,-0.469049,0.271584,-4.373020,-4.806749,1.976206,4.795269,10.656542,-5.282139
1.600000,0.015440,-1.307505,1.364805,1.393948,1.008988,0.058641,-0.687203,-0.516567,0.291060,-4.321796,-4.695254,1.917068,5.444954,11.640798,-6.542746
1.610000,0.029345,-1.297441,1.365406,1.386860,1.003589,0.061646,-0.730135,-0.562920,0.309884,-4.263921,-4.573820,1.845466,6.058420,12.611234,-7.785120
1.620000,0.043176,-1.287434,1.366039,1.379347,0.997733,0.064836,-0.772462,-0.608011,0.327929,-4.200397,-4.442901,1.761511,6.641032,13.570586,-9.000792
1.630000,0.056930,-1.277488,1.366704,1.371413,0.991434,0.068201,-0.814124,-0.651746,0.345074,-4.131210,-4.302448,1.665563,7.190692,14.517882,-10.182568
1.640000,0.070603,-1.267607,1.367403,1.363067,0.984703,0.071734,-0.855068,-0.694029,0.361201,-4.056700,-4.152587,1.557997,7.705302,15.452153,-11.323251
1.650000,0.084190,-1.257796,1.368139,1.354315,0.977558,0.075422,-0.895242,-0.734767,0.376197,-3.977228,-3.993452,1.439259,8.182763,16.372427,-12.415644
1.660000,0.097688,-1.248057,1.368912,1.345165,0.970014,0.079254,-0.934594,-0.773868,0.389947,-3.892858,-3.825240,1.309532,8.612950,17.279047,-13.444040
1.670000,0.111092,-1.238397,1.369724,1.335625,0.962087,0.083216,-0.973085,-0.811242,0.402354,-3.804745,-3.647983,1.170204,9.002775,18.169570,-14.410795
1.680000,0.124399,-1.228817,1.370577,1.325706,0.953795,0.087296,-1.010677,-0.846798,0.413320,-3.712941,-3.461906,1.021542,9.351122,19.042863,-15.309755
1.690000,0.137605,-1.219322,1.371471,1.315415,0.945157,0.091478,-1.047333,-0.880451,0.422756,-3.617865,-3.267187,0.864256,9.656875,19.897795,-16.134765
1.700000,0.150706,-1.209915,1.372407,1.304762,0.936192,0.095746,-1.083024,-0.912114,0.430579,-3.519949,-3.064015,0.699114,9.918919,20.733236,-16.879672
1.710000,0.163699,-1.200599,1.373386,1.293758,0.926922,0.100084,-1.117720,-0.941707,0.436707,-3.419285,-2.852908,0.526226,10.127265,21.556056,-17.520050
1.720000,0.176580,-1.191377,1.374408,1.282411,0.917366,0.104474,-1.151404,-0.969145,0.441084,-3.317157,-2.633327,0.348198,10.290758,22.356143,-18.070253
1.730000,0.189346,-1.182253,1.375475,1.270733,0.907546,0.108899,-1.184059,-0.994347,0.443654,-3.213619,-2.405868,0.165135,10.409369,23.131384,-18.526363
1.740000,0.201994,-1.173227,1.376586,1.258734,0.897486,0.113341,-1.215673,-1.017237,0.444373,-3.109119,-2.170789,-0.022003,10.483068,23.879670,-18.884463
1.750000,0.214520,-1.164304,1.377742,1.246423,0.887209,0.117781,-1.246239,-1.037739,0.443204,-3.004107,-1.928372,-0.212215,10.511828,24.598888,-19.140635
1.760000,0.226921,-1.155484,1.378942,1.233812,0.876740,0.122199,-1.275748,-1.055787,0.440110,-2.898412,-1.679458,-0.405523,10.479935,25.300621,-19.264172
1.770000,0.239195,-1.146769,1.380186,1.220911,0.866102,0.126577,-1.304210,-1.071305,0.435091,-2.793952,-1.423087,-0.598339,10.404965,25.967389,-19.281227
1.780000,0.251339,-1.138162,1.381473,1.207731,0.855322,0.130894,-1.331631,-1.084227,0.428145,-2.690450,-1.160239,-0.790791,10.288809,26.595402,-19.191163
1.790000,0.263349,-1.129663,1.382804,1.194282,0.844427,0.135133,-1.358023,-1.094490,0.419280,-2.588307,-0.891321,-0.981803,10.133359,27.180874,-18.993343
1.800000,0.275224,-1.121274,1.384176,1.180574,0.833442,0.139274,-1.383402,-1.102035,0.408517,-2.487907,-0.616776,-1.170296,9.940507,27.720016,-18.687129
1.810000,0.286960,-1.112995,1.385589,1.166617,0.822395,0.143298,-1.407789,-1.106812,0.395874,-2.389646,-0.337428,-1.356358,9.712918,28.217653,-18.242196
1.820000,0.298555,-1.104826,1.387041,1.152422,0.811315,0.147186,-1.431204,-1.108767,0.381407,-2.293796,-0.052991,-1.536112,9.451614,28.660331,-17.691231
1.830000,0.310007,-1.096768,1.388532,1.137997,0.800229,0.150920,-1.453674,-1.107858,0.365171,-2.200720,0.235579,-1.709839,9.158392,29.043206,-17.037232
1.840000,0.321314,-1.088821,1.390059,1.123351,0.789168,0.154483,-1.475228,-1.104044,0.347233,-2.110728,0.527658,-1.876523,8.835050,29.361438,-16.283197
1.850000,0.332474,-1.080985,1.391621,1.108495,0.778158,0.157859,-1.495900,-1.097295,0.327668,-2.024113,0.822576,-2.035179,8.483383,29.610183,-15.432125
1.860000,0.343484,-1.073258,1.393216,1.093436,0.767231,0.161032,-1.515713,-1.087584,0.306546,-1.940283,1.119740,-2.186103,8.083300,29.781419,-14.455410
1.870000,0.354342,-1.065640,1.394841,1.078183,0.756417,0.163986,-1.534719,-1.074896,0.283980,-1.861544,1.418084,-2.325408,7.661167,29.873874,-13.391524
1.880000,0.365047,-1.058129,1.396494,1.062744,0.745743,0.166707,-1.552959,-1.059221,0.260075,-1.787118,1.716940,-2.453666,7.221459,29.883094,-12.247335
1.890000,0.375596,-1.050724,1.398174,1.047126,0.735242,0.169183,-1.570476,-1.040558,0.234946,-1.717158,2.015453,-2.570110,6.768654,29.804627,-11.029709
1.900000,0.385989,-1.043424,1.399877,1.031337,0.724942,0.171402,-1.587317,-1.018916,0.208714,-1.651774,2.312725,-2.674038,6.307228,29.634020,-9.745515
1.910000,0.396222,-1.036225,1.401601,1.015382,0.714873,0.173354,-1.603537,-0.994298,0.181501,-1.591951,2.608988,-2.765549,5.864990,29.337110,-8.383243
1.920000,0.406296,-1.029125,1.403343,0.999268,0.705066,0.175030,-1.619171,-0.966748,0.153450,-1.535524,2.900469,-2.842355,5.420228,28.942791,-6.970389
1.930000,0.416207,-1.022122,1.405101,0.983001,0.695548,0.176421,-1.634262,-0.936304,0.124702,-1.483550,3.187516,-2.904818,4.974562,28.450249,-5.516071
1.940000,0.425955,-1.015213,1.406871,0.966585,0.686349,0.177522,-1.648857,-0.903015,0.095402,-1.436030,3.469144,-2.952569,4.529612,27.858670,-4.029407
1.950000,0.435538,-1.008394,1.408650,0.950025,0.677497,0.178328,-1.662998,-0.866942,0.065700,-1.392950,3.744357,-2.985329,4.086998,27.167238,-2.519516
1.960000,0.444955,-1.001662,1.410436,0.933326,0.669019,0.178835,-1.676736,-0.828139,0.035744,-1.354809,4.013395,-3.003120,3.661786,26.343779,-0.990274
1.970000,0.454204,-0.995013,1.412226,0.916492,0.660943,0.179042,-1.690108,-0.786703,0.005689,-1.320301,4.272307,-3.005354,3.240504,25.422678,0.543316
1.980000,0.463285,-0.988442,1.414016,0.899525,0.653293,0.178949,-1.703156,-0.742726,-0.024312,-1.289986,4.521533,-2.992271,2.823124,24.406960,2.071496
1.990000,0.472194,-0.981945,1.415804,0.882430,0.646096,0.178557,-1.715922,-0.696308,-0.054106,-1.263826,4.760141,-2.963975,2.409619,23.299648,3.584505
2.000000,0.480933,-0.975518,1.417586,0.865208,0.639375,0.177868,-1.728446,-0.647561,-0.083541,-1.241781,4.987231,-2.920664,1.999963,22.103768,5.072583
2.010000,0.489498,-0.969156,1.419360,0.847861,0.633152,0.176888,-1.740758,-0.596596,-0.112467,-1.222652,5.202708,-2.862339,1.564781,20.802734,6.518402
2.020000,0.497890,-0.962854,1.421123,0.830393,0.627450,0.175621,-1.752914,-0.543552,-0.140741,-1.209151,5.403894,-2.790103,1.136988,19.421583,7.920697
2.030000,0.506106,-0.956605,1.422872,0.812803,0.622288,0.174075,-1.764955,-0.488566,-0.168223,-1.199876,5.590890,-2.704099,0.720151,17.965742,9.270633
2.040000,0.514145,-0.950406,1.424604,0.795094,0.617684,0.172260,-1.776925,-0.431784,-0.194779,-1.194699,5.762978,-2.604895,0.317837,16.440636,10.559379
2.050000,0.522007,-0.944250,1.426316,0.777265,0.613657,0.170183,-1.788863,-0.373358,-0.220279,-1.193459,5.919490,-2.493145,-0.066387,14.851693,11.778100
2.060000,0.529690,-0.938131,1.428007,0.759317,0.610222,0.167858,-1.800811,-0.313439,-0.244590,-1.196335,6.060614,-2.368484,-0.419350,13.184199,12.889887
2.070000,0.537193,-0.932043,1.429673,0.741249,0.607393,0.165295,-1.812801,-0.252202,-0.267613,-1.202194,6.183905,-2.234375,-0.748265,11.466186,13.917421
2.080000,0.544515,-0.925981,1.431312,0.723060,0.605182,0.162510,-1.824865,-0.189819,-0.289245,-1.211212,6.289796,-2.090434,-1.050741,9.705547,14.855307
2.090000,0.551654,-0.919938,1.432922,0.704751,0.603600,0.159515,-1.837034,-0.126466,-0.309392,-1.223113,6.377900,-1.937586,-1.324387,7.910174,15.698148
2.100000,0.558609,-0.913907,1.434502,0.686319,0.602655,0.156327,-1.849336,-0.062321,-0.327970,-1.237596,6.447910,-1.776806,-1.566812,6.087960,16.440550
2.110000,0.565380,-0.907882,1.436048,0.667764,0.602355,0.152961,-1.861794,0.002434,-0.344890,-1.254307,6.499805,-1.607735,-1.776377,4.241526,17.041939
2.120000,0.571964,-0.901858,1.437560,0.649083,0.602705,0.149435,-1.874429,0.067613,-0.360107,-1.272969,6.532941,-1.434753,-1.949847,2.384681,17.536406
2.130000,0.578361,-0.895826,1.439036,0.630274,0.603708,0.145765,-1.887258,0.133031,-0.373570,-1.293176,6.547492,-1.257367,-2.084738,0.525964,17.922861
2.140000,0.584569,-0.889781,1.440475,0.611337,0.605366,0.141969,-1.900296,0.198501,-0.385243,-1.314527,6.543483,-1.076660,-2.178569,-1.326088,18.200218
2.150000,0.590587,-0.883716,1.441875,0.592268,0.607678,0.138066,-1.913551,0.263839,-0.395096,-1.336602,6.521021,-0.893730,-2.228855,-3.162937,18.367388
2.160000,0.596414,-0.877625,1.443236,0.573065,0.610642,0.134073,-1.927033,0.328856,-0.403099,-1.359361,6.479929,-0.708310,-2.222766,-4.966603,18.388616
2.170000,0.602048,-0.871501,1.444557,0.553726,0.614253,0.130010,-1.940737,0.393378,-0.409264,-1.381362,6.421371,-0.524770,-2.169433,-6.739146,18.301727
2.180000,0.607488,-0.865338,1.445836,0.534250,0.618507,0.125894,-1.954658,0.457225,-0.413599,-1.402588,6.345275,-0.342626,-2.067641,-8.473184,18.109877
2.190000,0.612733,-0.859129,1.447074,0.514633,0.623395,0.121744,-1.968785,0.520226,-0.416124,-1.422549,6.252061,-0.162912,-1.916174,-10.161334,17.816222
2.200000,0.617780,-0.852868,1.448271,0.494873,0.628908,0.117577,-1.983103,0.582211,-0.416869,-1.440742,6.142225,0.013370,-1.713816,-11.796215,17.423921
2.210000,0.622630,-0.846549,1.449426,0.474970,0.635036,0.113412,-1.997598,0.643008,-0.415861,-1.457189,6.015468,0.186239,-1.445765,-13.348461,16.911114
2.220000,0.627279,-0.840166,1.450539,0.454921,0.641764,0.109265,-2.012237,0.702470,-0.413162,-1.470091,5.874493,0.352411,-1.126054,-14.835366,16.309038
2.230000,0.631728,-0.833712,1.451611,0.434725,0.649080,0.105154,-2.026988,0.760449,-0.408834,-1.479540,5.718994,0.512143,-0.755133,-16.252239,15.623911
2.240000,0.635973,-0.827182,1.452642,0.414381,0.656968,0.101094,-2.041815,0.816804,-0.402944,-1.485025,5.549697,0.664633,-0.333449,-17.594389,14.861955
2.250000,0.640015,-0.820571,1.453633,0.393889,0.665410,0.097100,-2.056674,0.871400,-0.395568,-1.486041,5.367371,0.809146,0.138551,-18.857128,14.029388
2.260000,0.643851,-0.813872,1.454585,0.373248,0.674390,0.093187,-2.071524,0.924099,-0.386785,-1.482564,5.171806,0.945433,0.672460,-20.009774,13.121652
2.270000,0.647479,-0.807081,1.455497,0.352459,0.683886,0.089369,-2.086307,0.974799,-0.376690,-1.472970,4.966301,1.071871,1.254314,-21.076810,12.157066
2.280000,0.650899,-0.800193,1.456373,0.331522,0.693879,0.085657,-2.100963,1.023391,-0.365381,-1.457325,4.750560,1.188410,1.882191,-22.056728,11.143170
2.290000,0.654109,-0.793202,1.457211,0.310440,0.704346,0.082065,-2.115431,1.069779,-0.352957,-1.435179,4.525462,1.294595,2.554169,-22.948019,10.087505
2.300000,0.657108,-0.786104,1.458014,0.289214,0.715267,0.078602,-2.129644,1.113872,-0.339524,-1.406101,4.291900,1.390046,3.268324,-23.749176,8.997609
2.310000,0.659893,-0.778895,1.458784,0.267848,0.726616,0.075277,-2.143532,1.155582,-0.325194,-1.369988,4.049900,1.474364,4.030553,-24.436366,7.883411
2.320000,0.662464,-0.771571,1.459520,0.246345,0.738370,0.072100,-2.157017,1.194849,-0.310075,-1.325714,3.802477,1.547543,4.830158,-25.033139,6.749772
2.330000,0.664819,-0.764126,1.460226,0.224709,0.750505,0.069078,-2.170019,1.231613,-0.294281,-1.273269,3.549534,1.609319,5.664260,-25.540721,5.603937
2.340000,0.666958,-0.756559,1.460902,0.202947,0.762994,0.066217,-2.182454,1.265824,-0.277927,-1.212323,3.291956,1.659605,6.529979,-25.960339,4.453156
2.350000,0.668878,-0.748865,1.461551,0.181063,0.775813,0.063521,-2.194236,1.297440,-0.261127,-1.142574,3.030617,1.698390,7.424434,-26.293218,3.304676
2.360000,0.670579,-0.741042,1.462173,0.159064,0.788934,0.060995,-2.205277,1.326420,-0.244002,-1.063908,2.765794,1.725287,8.348765,-26.525851,2.176959
2.370000,0.672059,-0.733086,1.462771,0.136960,0.802332,0.058642,-2.215483,1.352749,-0.226659,-0.975703,2.499717,1.741479,9.295582,-26.676000,1.064666
2.380000,0.673318,-0.724995,1.463347,0.114758,0.815980,0.056463,-2.224760,1.376411,-0.209209,-0.877932,2.232538,1.746651,10.261514,-26.746696,-0.026331
2.390000,0.674354,-0.716766,1.463901,0.092468,0.829852,0.054458,-2.233010,1.397399,-0.191762,-0.770420,1.965038,1.741043,11.243189,-26.740969,-1.090157
2.400000,0.675167,-0.708397,1.464437,0.070101,0.843919,0.052627,-2.240135,1.415713,-0.174423,-0.653027,1.697964,1.724958,12.237235,-26.661848,-2.120936
2.410000,0.675756,-0.699887,1.464954,0.047669,0.858157,0.050969,-2.246037,1.431359,-0.157303,-0.525706,1.431791,1.698136,13.241803,-26.506183,-3.097186
2.420000,0.676120,-0.691233,1.465456,0.025185,0.872538,0.049480,-2.250616,1.444355,-0.140492,-0.388241,1.167786,1.662460,14.251813,-26.283940,-4.030552
2.430000,0.676259,-0.682435,1.465945,0.002662,0.887035,0.048158,-2.253769,1.454724,-0.124084,-0.240663,0.906321,1.617681,15.263707,-25.998907,-4.917074
2.440000,0.676173,-0.673492,1.466420,-0.019885,0.901624,0.046997,-2.255395,1.462492,-0.108167,-0.082972,0.648005,1.564288,16.273928,-25.654870,-5.752787
2.450000,0.675861,-0.664403,1.466885,-0.042441,0.916277,0.045992,-2.255394,1.467696,-0.092825,0.084798,0.393408,1.502808,17.278918,-25.255616,-6.533729
2.460000,0.675324,-0.655167,1.467340,-0.064987,0.930969,0.045138,-2.253666,1.470375,-0.078143,0.262555,0.143101,1.433139,18.275666,-24.805882,-7.239004
2.470000,0.674562,-0.645783,1.467788,-0.087508,0.945676,0.044427,-2.250110,1.470574,-0.064185,0.450245,-0.102508,1.357474,19.260001,-24.308388,-7.883656
2.480000,0.673574,-0.636253,1.468229,-0.109983,0.960373,0.043852,-2.244629,1.468342,-0.051014,0.647702,-0.342919,1.275674,20.228298,-23.766804,-8.465796
2.490000,0.672362,-0.626576,1.468666,-0.132394,0.975035,0.043404,-2.237124,1.463734,-0.038690,0.854746,-0.577710,1.188373,21.176931,-23.184800,-8.983534
2.500000,0.670927,-0.616753,1.469098,-0.154719,0.989640,0.043075,-2.227502,1.456808,-0.027263,1.071163,-0.806493,1.096224,22.102276,-22.566047,-9.434982
2.510000,0.669268,-0.606783,1.469528,-0.176936,1.004163,0.042856,-2.215671,1.447628,-0.016786,1.296689,-1.028709,0.999234,23.001031,-21.919543,-9.801420
2.520000,0.667388,-0.596670,1.469955,-0.199024,1.018585,0.042736,-2.201539,1.436256,-0.007289,1.531067,-1.244546,0.899671,23.869208,-21.242978,-10.099850
2.530000,0.665288,-0.586412,1.470383,-0.220959,1.032882,0.042707,-2.185021,1.422760,0.001198,1.773959,-1.453479,0.797464,24.703144,-20.539369,-10.330442
2.540000,0.662970,-0.576012,1.470810,-0.242716,1.047033,0.042757,-2.166033,1.407210,0.008653,2.025003,-1.655253,0.693288,25.499173,-19.811735,-10.493370
2.550000,0.660435,-0.565472,1.471238,-0.264271,1.061019,0.042876,-2.144495,1.389680,0.015060,2.283804,-1.849643,0.587821,26.253632,-19.063093,-10.588804
2.560000,0.657685,-0.554793,1.471668,-0.285598,1.074820,0.043055,-2.120332,1.370246,0.020401,2.549956,-2.036189,0.481095,26.962086,-18.303169,-10.600724
2.570000,0.654724,-0.543976,1.472099,-0.306669,1.088418,0.043281,-2.093473,1.348981,0.024682,2.822917,-2.215355,0.375301,27.621735,-17.527451,-10.547476
2.580000,0.651553,-0.533025,1.472533,-0.327458,1.101794,0.043545,-2.063853,1.325965,0.027910,3.102216,-2.386693,0.270356,28.229008,-16.738136,-10.431214
2.590000,0.648175,-0.521941,1.472970,-0.347937,1.114932,0.043836,-2.031410,1.301274,0.030094,3.387311,-2.550079,0.166880,28.780336,-15.937420,-10.254092
2.600000,0.644595,-0.510727,1.473410,-0.368076,1.127814,0.044143,-1.996089,1.274990,0.031254,3.677624,-2.705411,0.065470,29.272147,-15.127499,-10.018264
2.610000,0.640815,-0.499386,1.473853,-0.387849,1.140426,0.044458,-1.957840,1.247195,0.031406,3.972686,-2.852378,-0.033881,29.697254,-14.316325,-9.711130
2.620000,0.636839,-0.487920,1.474299,-0.407223,1.152753,0.044768,-1.916622,1.217969,0.030588,4.271510,-2.991462,-0.129236,30.056148,-13.499633,-9.351404
2.630000,0.632672,-0.476332,1.474748,-0.426171,1.164781,0.045066,-1.872399,1.187393,0.028834,4.573578,-3.122357,-0.220747,30.345700,-12.678917,-8.943049
2.640000,0.628318,-0.464625,1.475200,-0.444661,1.176497,0.045342,-1.825142,1.155550,0.026187,4.878182,-3.245032,-0.307948,30.562784,-11.855666,-8.490024
2.650000,0.623781,-0.452803,1.475655,-0.462664,1.187888,0.045587,-1.774829,1.122520,0.022691,5.184582,-3.359467,-0.390412,30.704272,-11.031375,-7.996290
2.660000,0.619066,-0.440869,1.476112,-0.480148,1.198944,0.045793,-1.721443,1.088389,0.018391,5.492338,-3.465516,-0.468204,30.758621,-10.211184,-7.454381
2.670000,0.614179,-0.428825,1.476571,-0.497082,1.209653,0.045953,-1.664982,1.053237,0.013346,5.799861,-3.563533,-0.539905,30.732151,-9.392487,-6.881084
2.680000,0.609126,-0.416677,1.477031,-0.513437,1.220005,0.046058,-1.605448,1.017146,0.007612,6.106705,-3.653374,-0.605739,30.622763,-8.576330,-6.281759
2.690000,0.603913,-0.404426,1.477492,-0.529181,1.229993,0.046103,-1.542853,0.980197,0.001251,6.412032,-3.735071,-0.665472,30.428361,-7.763756,-5.661767
2.700000,0.598545,-0.392078,1.477953,-0.544284,1.239607,0.046081,-1.477216,0.942471,-0.005676,6.714982,-3.808665,-0.718923,30.146847,-6.955811,-5.026468
2.710000,0.593029,-0.379635,1.478413,-0.558716,1.248840,0.045988,-1.408559,0.904051,-0.013108,7.015195,-3.874147,-0.766160,29.762919,-6.155055,-4.376365
2.720000,0.587373,-0.367103,1.478872,-0.572446,1.257685,0.045818,-1.336926,0.865015,-0.020978,7.310531,-3.931720,-0.806654,29.289304,-5.360830,-3.722269
2.730000,0.581583,-0.354483,1.479329,-0.585444,1.266138,0.045567,-1.262365,0.825443,-0.029219,7.600680,-3.981388,-0.840612,28.725520,-4.573996,-3.070137
2.740000,0.575666,-0.341781,1.479783,-0.597683,1.274193,0.045232,-1.184933,0.785413,-0.037768,7.884739,-4.023228,-0.868083,28.071087,-3.795411,-2.425922
2.750000,0.569632,-0.329001,1.480234,-0.609134,1.281845,0.044811,-1.104694,0.745004,-0.046560,8.161798,-4.057326,-0.889177,27.325527,-3.025935,-1.795580
2.760000,0.563487,-0.316146,1.480679,-0.619768,1.289092,0.044300,-1.021717,0.704293,-0.055529,8.431543,-4.083772,-0.903858,26.473244,-2.266620,-1.190182
2.770000,0.557239,-0.303220,1.481119,-0.629559,1.295930,0.043700,-0.936093,0.663354,-0.064617,8.691637,-4.102686,-0.912836,25.530724,-1.518106,-0.609939
2.780000,0.550898,-0.290228,1.481553,-0.638482,1.302358,0.043008,-0.847917,0.622264,-0.073767,8.941861,-4.114173,-0.916159,24.499337,-0.781230,-0.060182
2.790000,0.544473,-0.277174,1.481979,-0.646510,1.308375,0.042224,-0.757292,0.581095,-0.082923,9.181332,-4.118352,-0.914159,23.380454,-0.056826,0.453763
2.800000,0.537971,-0.264062,1.482397,-0.653620,1.313980,0.041350,-0.664329,0.539920,-0.092033,9.409183,-4.115354,-0.907221,22.175446,0.654270,0.926566
2.810000,0.531403,-0.250896,1.482806,-0.659789,1.319174,0.040384,-0.569144,0.498811,-0.101045,9.625100,-4.105313,-0.895127,20.872015,1.351211,1.336336
2.820000,0.524779,-0.237680,1.483205,-0.664996,1.323957,0.039329,-0.471872,0.457837,-0.109923,9.826961,-4.088379,-0.879920,19.486873,2.033175,1.696336
2.830000,0.518107,-0.224418,1.483592,-0.669220,1.328331,0.038186,-0.372652,0.417066,-0.118632,10.014575,-4.064703,-0.861377,18.023065,2.699331,2.003265
2.840000,0.511397,-0.211115,1.483968,-0.672443,1.332299,0.036957,-0.271630,0.376565,-0.127141,10.187170,-4.034448,-0.840043,16.483636,3.348844,2.253822
2.850000,0.504661,-0.197774,1.484331,-0.674647,1.335864,0.035644,-0.168961,0.336399,-0.135426,10.344006,-3.997784,-0.816499,14.871629,3.980882,2.444707
2.860000,0.497908,-0.184399,1.484681,-0.675817,1.339029,0.034249,-0.064801,0.296630,-0.143455,10.484786,-3.954862,-0.790318,13.179605,4.593888,2.546342
2.870000,0.491148,-0.170994,1.485016,-0.675939,1.341798,0.032775,0.040677,0.257321,-0.151230,10.607849,-3.905937,-0.764609,11.422375,5.187840,2.584922
2.880000,0.484393,-0.157564,1.485336,-0.675000,1.344177,0.031225,0.147297,0.218531,-0.158747,10.713031,-3.851172,-0.738830,9.604270,5.761993,2.560365
2.890000,0.477652,-0.144112,1.485640,-0.672990,1.346170,0.029601,0.254876,0.180317,-0.166008,10.799746,-3.790766,-0.713613,7.729617,6.315603,2.472586
2.900000,0.470937,-0.130642,1.485928,-0.669900,1.347785,0.027906,0.363228,0.142734,-0.173023,10.867449,-3.724930,-0.689590,5.802744,6.847924,2.321505
2.910000,0.464258,-0.117158,1.486198,-0.665723,1.349027,0.026141,0.472163,0.105836,-0.179793,10.915940,-3.653819,-0.666175,3.820422,7.356641,2.076249
2.920000,0.457626,-0.103663,1.486450,-0.660455,1.349904,0.024310,0.581480,0.069674,-0.186356,10.944053,-3.577803,-0.646889,1.795462,7.842773,1.771295
2.930000,0.451052,-0.090161,1.486684,-0.654093,1.350423,0.022415,0.690976,0.034296,-0.192742,10.951725,-3.497041,-0.630936,-0.266881,8.305766,1.410329
2.940000,0.444548,-0.076655,1.486898,-0.646636,1.350593,0.020456,0.800445,-0.000252,-0.198987,10.938608,-3.411766,-0.618857,-2.361353,8.745067,0.997038
2.950000,0.438123,-0.063150,1.487093,-0.638085,1.350421,0.018435,0.909678,-0.033925,-0.205133,10.904408,-3.322220,-0.611157,-4.482700,9.160125,0.535110
2.960000,0.431789,-0.049648,1.487267,-0.628444,1.349918,0.016353,1.018465,-0.066682,-0.211214,10.849109,-3.228573,-0.607135,-6.631402,9.548529,-0.001319
2.970000,0.425558,-0.036153,1.487420,-0.617718,1.349091,0.014211,1.126588,-0.098484,-0.217295,10.771984,-3.131250,-0.609990,-8.795770,9.911811,-0.575392
2.980000,0.419439,-0.022667,1.487551,-0.605915,1.347951,0.012007,1.233832,-0.129295,-0.223433,10.673161,-3.030422,-0.618744,-10.969847,10.249646,-1.179804
2.990000,0.413443,-0.009195,1.487660,-0.593045,1.346508,0.009741,1.339979,-0.159082,-0.229690,10.552574,-2.926343,-0.633663,-13.147676,10.561708,-1.807250
3.000000,0.407581,0.004262,1.487745,-0.579120,1.344773,0.007413,1.444811,-0.187812,-0.236128,10.410215,-2.819275,-0.654941,-15.323303,10.847673,-2.450422
3.010000,0.401864,0.017700,1.487808,-0.564154,1.342756,0.005018,1.548114,-0.215458,-0.242805,10.246448,-2.709442,-0.682153,-17.498651,11.106309,-3.115821
3.020000,0.396302,0.031116,1.487846,-0.548163,1.340468,0.002555,1.649668,-0.241993,-0.249793,10.060644,-2.597197,-0.716639,-19.658919,11.338308,-3.780645
3.030000,0.390904,0.044508,1.487858,-0.531167,1.337920,0.000021,1.749256,-0.267394,-0.257159,9.853343,-2.482765,-0.757734,-21.797185,11.543456,-4.435900
3.040000,0.385682,0.057874,1.487846,-0.513186,1.335124,-0.002589,1.846664,-0.291642,-0.264969,9.624797,-2.366418,-0.805295,-23.906530,11.721538,-5.072587
3.050000,0.380644,0.071210,1.487806,-0.494242,1.332091,-0.005280,1.941682,-0.314717,-0.273286,9.375331,-2.248426,-0.859094,-25.980031,11.872340,-5.681713
3.060000,0.375800,0.084515,1.487740,-0.474361,1.328833,-0.008057,2.034107,-0.336605,-0.282171,9.105801,-2.129051,-0.918831,-28.022443,11.995368,-6.253697
3.070000,0.371159,0.097786,1.487645,-0.453569,1.325363,-0.010926,2.123731,-0.357294,-0.291681,8.815574,-2.008598,-0.984042,-30.013740,12.090722,-6.780198
3.080000,0.366731,0.111021,1.487521,-0.431896,1.321691,-0.013893,2.210353,-0.376775,-0.301869,8.505725,-1.887330,-1.054253,-31.945571,12.158223,-7.252292
3.090000,0.362524,0.124219,1.487367,-0.409373,1.317831,-0.016966,2.293782,-0.395039,-0.312781,8.176889,-1.765527,-1.128877,-33.809587,12.197690,-7.661053
3.100000,0.358547,0.137377,1.487181,-0.386032,1.313795,-0.020151,2.373830,-0.412084,-0.324459,7.829787,-1.643470,-1.207234,-35.597436,12.208943,-7.997556
3.110000,0.354806,0.150494,1.486963,-0.361908,1.309594,-0.023457,2.450311,-0.427907,-0.336946,7.464445,-1.521305,-1.289562,-37.281147,12.188319,-8.227502
3.120000,0.351311,0.163569,1.486712,-0.337038,1.305240,-0.026892,2.523064,-0.442512,-0.350256,7.083589,-1.399642,-1.372627,-38.874394,12.139548,-8.370449
3.130000,0.348068,0.176599,1.486425,-0.311459,1.300747,-0.030465,2.591931,-0.455902,-0.364402,6.687278,-1.278607,-1.456662,-40.371227,12.062877,-8.420579
3.140000,0.345084,0.189583,1.486102,-0.285213,1.296126,-0.034183,2.656762,-0.468087,-0.379389,6.276506,-1.158477,-1.540709,-41.765699,11.958554,-8.372075
3.150000,0.342366,0.202521,1.485741,-0.258338,1.291390,-0.038056,2.717417,-0.479076,-0.395213,5.852325,-1.039527,-1.623755,-43.051862,11.826825,-8.219120
3.160000,0.339919,0.215411,1.485340,-0.230878,1.286549,-0.042090,2.773754,-0.488880,-0.411874,5.414658,-0.921791,-1.706255,-44.193674,11.661889,-7.917230
3.170000,0.337750,0.228252,1.484898,-0.202877,1.281616,-0.046295,2.825674,-0.497517,-0.429326,4.967497,-0.806107,-1.783454,-45.218967,11.470781,-7.503988
3.180000,0.335863,0.241043,1.484414,-0.174380,1.276602,-0.050679,2.873072,-0.505008,-0.447528,4.510675,-0.692460,-1.855960,-46.125476,11.254488,-6.978312
3.190000,0.334264,0.253783,1.483884,-0.145431,1.271519,-0.055248,2.915859,-0.511374,-0.466426,4.045391,-0.581097,-1.922642,-46.910938,11.013999,-6.339119
3.200000,0.332956,0.266473,1.483308,-0.116078,1.266378,-0.060009,2.953956,-0.516639,-0.485957,3.572867,-0.472257,-1.982360,-47.573090,10.750300,-5.585326
3.210000,0.331944,0.279111,1.482683,-0.086368,1.261190,-0.064969,2.987292,-0.520828,-0.506065,3.093967,-0.366073,-2.035713,-48.100045,10.462037,-4.671647
3.220000,0.331230,0.291697,1.482008,-0.056348,1.255965,-0.070132,3.015820,-0.523970,-0.526639,2.610859,-0.262981,-2.077396,-48.500343,10.152826,-3.646615
3.230000,0.330817,0.304230,1.481280,-0.026068,1.250714,-0.075503,3.039498,-0.526098,-0.547577,2.124386,-0.163082,-2.108289,-48.772898,9.823941,-2.514561
3.240000,0.330709,0.316711,1.480497,0.004425,1.245447,-0.081084,3.058300,-0.527243,-0.568765,1.635830,-0.066564,-2.127345,-48.916626,9.476656,-1.279814
3.250000,0.330907,0.329139,1.479658,0.035082,1.240172,-0.086878,3.072212,-0.527441,-0.590081,1.146486,0.026394,-2.133557,-48.930442,9.112246,0.053295
3.260000,0.331411,0.341514,1.478759,0.065853,1.234901,-0.092885,3.081232,-0.526728,-0.611413,0.657654,0.115593,-2.128010,-48.813149,8.732873,1.532090
3.270000,0.332224,0.353837,1.477799,0.096690,1.229641,-0.099105,3.085371,-0.525142,-0.632591,0.170658,0.200963,-2.104944,-48.563789,8.338813,3.094262
3.280000,0.333345,0.366107,1.476776,0.127545,1.224401,-0.105536,3.084655,-0.522722,-0.653458,-0.313178,0.282324,-2.065883,-48.181291,7.931233,4.729157
3.290000,0.334775,0.378325,1.475688,0.158367,1.219189,-0.112173,3.079123,-0.519509,-0.673853,-0.792520,0.359547,-2.010154,-47.664583,7.511298,6.426119
3.300000,0.336512,0.390491,1.474532,0.189111,1.214013,-0.119011,3.068824,-0.515545,-0.693604,-1.266019,0.432513,-1.937189,-47.012594,7.080174,8.174493
3.310000,0.338556,0.402605,1.473307,0.219728,1.208880,-0.126042,3.053829,-0.510874,-0.712552,-1.732107,0.501100,-1.847887,-46.229572,6.639435,9.997958
3.320000,0.340906,0.414669,1.472011,0.250172,1.203798,-0.133258,3.034211,-0.505538,-0.730500,-2.189913,0.565253,-1.738676,-45.308477,6.189787,11.847321
3.330000,0.343559,0.426682,1.470641,0.280397,1.198772,-0.140648,3.010063,-0.499584,-0.747264,-2.637810,0.624870,-1.610904,-44.247585,5.732345,13.707724
3.340000,0.346513,0.438644,1.469197,0.310359,1.193808,-0.148199,2.981492,-0.493056,-0.762656,-3.074393,0.679878,-1.464534,-43.045174,5.268225,15.564305
3.350000,0.349765,0.450558,1.467677,0.340013,1.188912,-0.155896,2.948618,-0.486002,-0.776493,-3.498236,0.730216,-1.299680,-41.699523,4.798541,17.402207
3.360000,0.353312,0.462423,1.466079,0.369318,1.184090,-0.163723,2.911549,-0.478467,-0.788594,-3.910260,0.775914,-1.117053,-40.149306,4.322383,19.217963
3.370000,0.357150,0.474240,1.464402,0.398231,1.179344,-0.171661,2.870467,-0.470499,-0.798774,-4.303419,0.816744,-0.915995,-38.459701,3.843140,20.983925
3.380000,0.361275,0.486010,1.462645,0.426714,1.174681,-0.179691,2.825539,-0.462148,-0.806856,-4.679008,0.852771,-0.697595,-36.636286,3.362175,22.683840
3.390000,0.365683,0.497734,1.460808,0.454730,1.170103,-0.187791,2.776949,-0.453460,-0.812671,-5.035717,0.883986,-0.462593,-34.684637,2.880852,24.301454
3.400000,0.370368,0.509412,1.458889,0.482242,1.165613,-0.195936,2.724892,-0.444484,-0.816056,-5.372292,0.910392,-0.211894,-32.610329,2.400534,25.820511
3.410000,0.375326,0.521047,1.456889,0.509217,1.161214,-0.204104,2.669549,-0.435268,-0.816843,-5.689891,0.932064,0.054940,-30.359382,1.921098,27.186738
3.420000,0.380551,0.532637,1.454807,0.535624,1.156908,-0.212265,2.611171,-0.425859,-0.814914,-5.981791,0.948893,0.333116,-28.004221,1.445576,28.426556
3.430000,0.386037,0.544185,1.452644,0.561432,1.152697,-0.220392,2.549993,-0.416306,-0.810142,-6.249671,0.960993,0.623011,-25.557716,0.975512,29.528367
3.440000,0.391777,0.555691,1.450400,0.586615,1.148582,-0.228458,2.486261,-0.406655,-0.802419,-6.492684,0.968427,0.923185,-23.032736,0.512453,30.480571
3.450000,0.397767,0.567157,1.448075,0.611149,1.144564,-0.236431,2.420225,-0.396952,-0.791649,-6.710107,0.971271,1.232085,-20.442149,0.057943,31.271571
3.460000,0.403998,0.578583,1.445671,0.635013,1.140643,-0.244281,2.352133,-0.387245,-0.777727,-6.902553,0.969581,1.550539,-17.768454,-0.385498,31.826666
3.470000,0.410465,0.589970,1.443190,0.658186,1.136819,-0.251975,2.282264,-0.377575,-0.760623,-7.066712,0.963556,1.870846,-15.058608,-0.817418,32.205086
3.480000,0.417159,0.601320,1.440633,0.680653,1.133091,-0.259483,2.210889,-0.367988,-0.740300,-7.203660,0.953275,2.194039,-12.329200,-1.236391,32.402958
3.490000,0.424075,0.612632,1.438001,0.702400,1.129459,-0.266771,2.138282,-0.358523,-0.716739,-7.313286,0.938876,2.518291,-9.596817,-1.640991,32.416411
3.500000,0.431205,0.623909,1.435298,0.723416,1.125920,-0.273807,2.064714,-0.349223,-0.689937,-7.395642,0.920508,2.841739,-6.878047,-2.029793,32.241571
3.510000,0.438541,0.635151,1.432526,0.743692,1.122474,-0.280559,1.990465,-0.340127,-0.659885,-7.450423,0.898210,3.165068,-4.202735,-2.398144,31.809242
3.520000,0.446076,0.646359,1.429688,0.763223,1.119117,-0.286995,1.915794,-0.331271,-0.626653,-7.479255,0.872462,3.480214,-1.572587,-2.748240,31.188876
3.530000,0.453803,0.657534,1.426787,0.782007,1.115848,-0.293082,1.840966,-0.322689,-0.590304,-7.482075,0.843309,3.788233,0.997432,-3.079050,30.384600
3.540000,0.461714,0.668676,1.423827,0.800043,1.112662,-0.298791,1.766237,-0.314416,-0.550918,-7.459557,0.810949,4.087306,3.492356,-3.389541,29.400541
3.550000,0.469802,0.679787,1.420813,0.817333,1.109558,-0.304091,1.691857,-0.306480,-0.508594,-7.412528,0.775590,4.375658,5.897223,-3.678685,28.240827
3.560000,0.478058,0.690868,1.417747,0.833881,1.106531,-0.308954,1.618089,-0.298915,-0.463422,-7.339822,0.737229,4.653816,8.142995,-3.939879,26.852373
3.570000,0.486477,0.701918,1.414635,0.849697,1.103579,-0.313351,1.545134,-0.291744,-0.415567,-7.247632,0.696619,4.914725,10.275401,-4.178344,25.303524
3.580000,0.495050,0.712939,1.411482,0.864788,1.100695,-0.317257,1.473205,-0.284991,-0.365182,-7.134720,0.653739,5.159389,12.286098,-4.393732,23.605411
3.590000,0.503770,0.723932,1.408292,0.879165,1.097877,-0.320647,1.402504,-0.278676,-0.312438,-7.002343,0.608823,5.386373,14.166741,-4.585695,21.769166
3.600000,0.512631,0.734897,1.405071,0.892842,1.095120,-0.323498,1.333219,-0.272820,-0.257518,-6.851846,0.562105,5.594349,15.908988,-4.753883,19.805924
3.610000,0.521625,0.745835,1.401824,0.905834,1.092419,-0.325791,1.265547,-0.267442,-0.200606,-6.682438,0.513556,5.783247,17.448560,-4.891139,17.697955
3.620000,0.530745,0.756746,1.398557,0.918158,1.089770,-0.327505,1.199619,-0.262553,-0.141925,-6.500872,0.464057,5.949259,18.839898,-5.004757,15.488787
3.630000,0.539986,0.767630,1.395276,0.929833,1.087167,-0.328624,1.135573,-0.258165,-0.081696,-6.306139,0.413538,6.092735,20.081507,-5.095221,13.193086
3.640000,0.549340,0.778489,1.391986,0.940876,1.084605,-0.329134,1.073535,-0.254285,-0.020148,-6.099746,0.362228,6.212881,21.171892,-5.163016,10.825517
3.650000,0.558801,0.789323,1.388695,0.951310,1.082079,-0.329024,1.013612,-0.250922,0.042482,-5.883211,0.310351,6.309054,22.109560,-5.208627,8.400748
3.660000,0.568364,0.800131,1.385408,0.961156,1.079585,-0.328282,0.955917,-0.248081,0.105952,-5.656453,0.258005,6.380767,22.852212,-5.229433,5.933119
3.670000,0.578022,0.810914,1.382131,0.970436,1.077116,-0.326903,0.900505,-0.245762,0.170015,-5.424847,0.205694,6.427638,23.444154,-5.229405,3.437663
3.680000,0.587771,0.821673,1.378872,0.979174,1.074668,-0.324881,0.847437,-0.243966,0.234421,-5.188061,0.153483,6.449477,23.888887,-5.209409,0.929083
3.690000,0.597604,0.832408,1.375636,0.987393,1.072235,-0.322214,0.796756,-0.242691,0.298920,-4.947548,0.101569,6.446225,24.189915,-5.170310,-1.577913
3.700000,0.607517,0.843118,1.372430,0.995117,1.069812,-0.318903,0.748494,-0.241933,0.363262,-4.704730,0.050138,6.417973,24.350738,-5.112972,-4.068619
3.710000,0.617505,0.853804,1.369260,1.002370,1.067394,-0.314950,0.702683,-0.241688,0.427188,-4.459359,-0.000759,6.364064,24.333670,-5.035062,-6.505796
3.720000,0.627563,0.864466,1.366133,1.009178,1.064977,-0.310361,0.659304,-0.241946,0.490463,-4.216645,-0.050653,6.286994,24.188446,-4.941036,-8.900030
3.730000,0.637687,0.875103,1.363055,1.015564,1.062554,-0.305143,0.618343,-0.242698,0.552849,-3.975988,-0.099530,6.186247,23.923611,-4.832151,-11.239376
3.740000,0.647873,0.885717,1.360032,1.021553,1.060121,-0.299308,0.579773,-0.243932,0.614111,-3.738543,-0.147250,6.062430,23.547708,-4.709665,-13.511885
3.750000,0.658117,0.896306,1.357071,1.027167,1.057674,-0.292866,0.543558,-0.245638,0.674023,-3.505376,-0.193683,5.916271,23.069286,-4.574833,-15.705613
3.760000,0.668415,0.906870,1.354177,1.032431,1.055207,-0.285832,0.509657,-0.247802,0.732349,-3.276677,-0.238739,5.747179,22.476854,-4.428193,-17.772213
3.770000,0.678764,0.917410,1.351356,1.037368,1.052716,-0.278224,0.478003,-0.250408,0.788899,-3.055221,-0.282246,5.559530,21.801444,-4.271810,-19.740593
3.780000,0.689161,0.927925,1.348614,1.041999,1.050197,-0.270060,0.448529,-0.253441,0.843476,-2.840888,-0.324147,5.352719,21.054057,-4.107030,-21.603265
3.790000,0.699603,0.938414,1.345957,1.046345,1.047646,-0.261362,0.421159,-0.256885,0.895893,-2.634343,-0.364363,5.127842,20.245689,-3.935199,-23.352739
3.800000,0.710087,0.948877,1.343389,1.050429,1.045058,-0.252150,0.395814,-0.260723,0.945976,-2.436141,-0.402832,4.886067,19.387340,-3.757661,-24.981524
3.810000,0.720611,0.959315,1.340915,1.054268,1.042430,-0.242450,0.372397,-0.264934,0.993544,-2.247652,-0.439361,4.626988,18.513394,-3.579321,-26.440449
3.820000,0.731172,0.969726,1.338541,1.057883,1.039758,-0.232288,0.350831,-0.269504,1.038470,-2.067020,-0.474248,4.355832,17.608600,-3.397530,-27.768810
3.830000,0.741768,0.980110,1.336271,1.061291,1.037039,-0.221690,0.331026,-0.274413,1.080619,-1.895556,-0.507303,4.072055,16.681092,-3.213197,-28.964221
3.840000,0.752397,0.990466,1.334109,1.064509,1.034269,-0.210685,0.312889,-0.279644,1.119873,-1.733447,-0.538506,3.776999,15.739006,-3.027232,-30.024295
3.850000,0.763058,1.000795,1.332059,1.067554,1.031445,-0.199302,0.296326,-0.285177,1.156126,-1.580797,-0.567845,3.472028,14.790475,-2.840545,-30.946647
3.860000,0.773748,1.011095,1.330124,1.070441,1.028564,-0.187572,0.281235,-0.290994,1.189271,-1.438211,-0.595237,3.157243,13.858266,-2.656075,-31.696319
3.870000,0.784466,1.021366,1.328308,1.073183,1.025624,-0.175527,0.267530,-0.297076,1.219248,-1.304259,-0.620879,2.837110,12.934091,-2.472454,-32.307484
3.880000,0.795211,1.031607,1.326614,1.075796,1.022622,-0.163198,0.255119,-0.303405,1.245995,-1.179481,-0.644692,2.511550,12.024293,-2.290342,-32.781745
3.890000,0.805982,1.041818,1.325045,1.078290,1.019555,-0.150618,0.243911,-0.309964,1.269466,-1.063704,-0.666693,2.181926,11.135216,-2.110401,-33.120704
3.900000,0.816777,1.051998,1.323603,1.080678,1.016422,-0.137820,0.233816,-0.316733,1.289625,-0.956687,-0.686909,1.849582,10.273202,-1.933292,-33.325964
3.910000,0.827595,1.062147,1.322289,1.082970,1.013220,-0.124837,0.224735,-0.323694,1.306443,-0.859385,-0.705241,1.514922,9.476331,-1.762942,-33.375772
3.920000,0.838436,1.072262,1.321106,1.085176,1.009948,-0.111702,0.216602,-0.330832,1.319924,-0.768457,-0.722035,1.181449,8.715324,-1.596346,-33.297944
3.930000,0.849298,1.082345,1.320056,1.087305,1.006603,-0.098449,0.209341,-0.338130,1.330076,-0.684950,-0.737182,0.849374,7.992639,-1.433765,-33.096943
3.940000,0.860182,1.092394,1.319138,1.089365,1.003185,-0.085111,0.202880,-0.345571,1.336920,-0.608469,-0.750724,0.519906,7.310734,-1.275461,-32.777231
3.950000,0.871085,1.102409,1.318354,1.091365,0.999691,-0.071722,0.197150,-0.353139,1.340487,-0.538592,-0.762706,0.194210,6.672066,-1.121696,-32.343269
3.960000,0.882009,1.112388,1.317703,1.093311,0.996121,-0.058312,0.192077,-0.360819,1.340815,-0.475900,-0.773086,-0.127098,6.104987,-0.974945,-31.786786
3.970000,0.892951,1.122331,1.317187,1.095209,0.992474,-0.044916,0.187614,-0.368596,1.337965,-0.417498,-0.782122,-0.441748,5.582889,-0.832983,-31.126537
3.980000,0.903913,1.132237,1.316805,1.097065,0.988749,-0.031563,0.183710,-0.376456,1.332004,-0.364095,-0.789762,-0.749303,5.105060,-0.695800,-30.368542
3.990000,0.914892,1.142106,1.316556,1.098885,0.984945,-0.018286,0.180317,-0.384387,1.323006,-0.315252,-0.796054,-1.048813,4.670784,-0.563386,-29.518824
4.000000,0.925890,1.151936,1.316439,1.100673,0.981061,-0.005113,0.177391,-0.392373,1.311057,-0.270536,-0.801045,-1.339393,4.279350,-0.435731,-28.583404
4.010000,0.936906,1.161727,1.316453,1.102434,0.977097,0.007926,0.174886,-0.400403,1.296249,-0.230203,-0.804739,-1.620389,3.947201,-0.313978,-27.563926
4.020000,0.947939,1.171477,1.316597,1.104172,0.973053,0.020803,0.172777,-0.408464,1.278685,-0.192227,-0.807289,-1.890624,3.654365,-0.196823,-26.471325
4.030000,0.958989,1.181187,1.316868,1.105891,0.968928,0.033491,0.171033,-0.416545,1.258474,-0.156994,-0.808690,-2.149594,3.398028,-0.084114,-25.312157
4.040000,0.970057,1.190856,1.317266,1.107594,0.964722,0.045964,0.169629,-0.424634,1.235732,-0.124154,-0.808986,-2.396667,3.175377,0.024299,-24.092978
4.050000,0.981141,1.200481,1.317787,1.109285,0.960435,0.058197,0.168543,-0.432721,1.210582,-0.093384,-0.808218,-2.631275,2.983597,0.128569,-22.820346
4.060000,0.992242,1.210064,1.318429,1.110966,0.956068,0.070168,0.167753,-0.440795,1.183151,-0.064630,-0.806419,-2.852851,2.825977,0.228622,-21.502483
4.070000,1.003360,1.219603,1.319189,1.112641,0.951620,0.081853,0.167245,-0.448846,1.153570,-0.037055,-0.803648,-3.061115,2.692852,0.324862,-20.144077
4.080000,1.014495,1.229096,1.320065,1.114312,0.947091,0.093232,0.167007,-0.456865,1.121974,-0.010704,-0.799933,-3.255619,2.580661,0.417466,-18.751481
4.090000,1.025647,1.238544,1.321053,1.115982,0.942482,0.104286,0.167028,-0.464842,1.088504,0.014616,-0.795310,-3.436052,2.485843,0.506613,-17.331049
4.100000,1.036815,1.247946,1.322150,1.117653,0.937794,0.114997,0.167297,-0.472768,1.053301,0.039059,-0.789812,-3.602168,2.404837,0.592481,-15.889132
4.110000,1.048000,1.257300,1.323352,1.119328,0.933027,0.125347,0.167808,-0.480635,1.016512,0.062891,-0.783487,-3.753549,2.330433,0.675661,-14.438027
4.120000,1.059201,1.266606,1.324655,1.121010,0.928182,0.135322,0.168552,-0.488435,0.978279,0.085854,-0.776327,-3.890632,2.263164,0.755870,-12.977417
4.130000,1.070420,1.275863,1.326057,1.122700,0.923259,0.144908,0.169523,-0.496159,0.938748,0.108168,-0.768379,-4.013084,2.199915,0.833234,-11.512928
4.140000,1.081655,1.285071,1.327552,1.124401,0.918259,0.154093,0.170714,-0.503800,0.898066,0.129856,-0.759672,-4.120896,2.137572,0.907882,-10.050185
4.150000,1.092908,1.294228,1.329137,1.126115,0.913183,0.162866,0.172118,-0.511350,0.856379,0.150912,-0.750230,-4.214113,2.073019,0.979943,-8.594814
4.160000,1.104178,1.303334,1.330808,1.127844,0.908032,0.171218,0.173734,-0.518803,0.813836,0.171686,-0.740107,-4.292479,1.993343,1.050210,-7.161459
4.170000,1.115465,1.312388,1.332560,1.129590,0.902807,0.179140,0.175549,-0.526150,0.770577,0.191192,-0.729264,-4.356998,1.906427,1.118064,-5.745623
4.180000,1.126770,1.321390,1.334389,1.131356,0.897510,0.186627,0.177555,-0.533386,0.726743,0.209784,-0.717754,-4.407465,1.810357,1.183550,-4.351827
4.190000,1.138092,1.330338,1.336291,1.133142,0.892140,0.193674,0.179741,-0.540503,0.682473,0.227362,-0.705601,-4.444123,1.703217,1.246716,-2.984593
4.200000,1.149433,1.339233,1.338261,1.134951,0.886700,0.200276,0.182098,-0.547496,0.637905,0.243805,-0.692827,-4.467260,1.583091,1.307606,-1.648442
4.210000,1.160791,1.348072,1.340295,1.136784,0.881191,0.206431,0.184618,-0.554358,0.593177,0.259447,-0.679479,-4.476769,1.436126,1.366853,-0.359047
4.220000,1.172168,1.356856,1.342389,1.138644,0.875613,0.212139,0.187282,-0.561083,0.548412,0.273010,-0.665524,-4.474072,1.273808,1.423846,0.891587
4.230000,1.183564,1.365584,1.344537,1.140531,0.869969,0.217400,0.190073,-0.567666,0.503736,0.284871,-0.651010,-4.459077,1.095683,1.478560,2.100306
4.240000,1.194979,1.374255,1.346735,1.142446,0.864260,0.222215,0.192973,-0.574102,0.459270,0.294869,-0.635960,-4.432217,0.901298,1.530970,3.263953
4.250000,1.206413,1.382869,1.348979,1.144390,0.858488,0.226586,0.195963,-0.580384,0.415130,0.302841,-0.620398,-4.393958,0.690199,1.581050,4.379373
4.260000,1.217867,1.391425,1.351265,1.146365,0.852653,0.230519,0.199027,-0.586508,0.371433,0.309036,-0.604359,-4.344317,0.451324,1.629078,5.431208
4.270000,1.229341,1.399922,1.353588,1.148371,0.846758,0.234017,0.202136,-0.592470,0.328278,0.312287,-0.587838,-4.284966,0.196128,1.674689,6.429999
4.280000,1.240834,1.408360,1.355944,1.150408,0.840804,0.237086,0.205264,-0.598263,0.285766,0.312907,-0.570874,-4.215900,-0.074542,1.717820,7.374084
4.290000,1.252349,1.416738,1.358329,1.152476,0.834794,0.239734,0.208385,-0.603886,0.243990,0.310747,-0.553490,-4.137673,-0.359841,1.758408,8.261801
4.300000,1.263884,1.425056,1.360738,1.154575,0.828727,0.241969,0.211469,-0.609332,0.203041,0.305664,-0.535714,-4.050857,-0.658922,1.796391,9.091489
4.310000,1.275440,1.433312,1.363167,1.156705,0.822608,0.243798,0.214491,-0.614599,0.163005,0.297803,-0.517570,-3.955569,-0.977945,1.831674,9.849546
4.320000,1.287018,1.441508,1.365612,1.158865,0.816436,0.245232,0.217414,-0.619682,0.123954,0.286381,-0.499088,-3.853533,-1.308200,1.864230,10.547713
4.330000,1.298618,1.449641,1.368070,1.161053,0.810215,0.246281,0.220207,-0.624579,0.085957,0.271607,-0.480295,-3.744815,-1.647984,1.894001,11.185790
4.340000,1.310239,1.457712,1.370537,1.163268,0.803945,0.246955,0.222835,-0.629287,0.049078,0.253395,-0.461218,-3.630018,-1.995593,1.920930,11.763578
4.350000,1.321883,1.465720,1.373008,1.165509,0.797629,0.247266,0.225263,-0.633803,0.013375,0.231675,-0.441886,-3.509745,-2.349323,1.944958,12.280877
4.360000,1.333550,1.473664,1.375481,1.167773,0.791270,0.247226,0.227458,-0.638124,-0.021097,0.206495,-0.422316,-3.384194,-2.710016,1.965722,12.727169
4.370000,1.345239,1.481545,1.377951,1.170057,0.784868,0.246848,0.229381,-0.642249,-0.054295,0.177580,-0.402568,-3.254940,-3.073111,1.983506,13.113838
4.380000,1.356951,1.489361,1.380417,1.172359,0.778425,0.246145,0.230997,-0.646175,-0.086183,0.145031,-0.382656,-3.122113,-3.436593,1.998287,13.441946
4.390000,1.368686,1.497113,1.382873,1.174676,0.771945,0.245129,0.232270,-0.649901,-0.116728,0.108854,-0.362612,-2.986293,-3.798445,2.010044,13.712557
4.400000,1.380444,1.504800,1.385318,1.177004,0.765428,0.243815,0.233162,-0.653427,-0.145901,0.069074,-0.342466,-2.848050,-4.156653,2.018757,13.926736
4.410000,1.392226,1.512422,1.387749,1.179338,0.758877,0.242216,0.233639,-0.656750,-0.173679,0.025679,-0.322230,-2.707642,-4.507684,2.023963,14.077954
4.420000,1.404031,1.519978,1.390162,1.181675,0.752294,0.240346,0.233664,-0.659871,-0.200050,-0.021122,-0.301977,-2.566329,-4.851226,2.026135,14.175796
4.430000,1.415860,1.527468,1.392555,1.184010,0.745680,0.238219,0.233205,-0.662790,-0.225003,-0.071314,-0.281717,-2.424297,-5.185449,2.025306,14.222258
4.440000,1.427711,1.534891,1.394925,1.186337,0.739038,0.235850,0.232227,-0.665506,-0.248535,-0.124794,-0.261481,-2.282049,-5.508521,2.021508,14.219333
4.450000,1.439586,1.542248,1.397271,1.188652,0.732371,0.233253,0.230699,-0.668019,-0.270645,-0.181441,-0.241297,-2.140068,-5.818614,2.014774,14.169014
4.460000,1.451484,1.549538,1.399589,1.190949,0.725679,0.230442,0.228586,-0.670332,-0.291337,-0.241289,-0.221178,-1.998650,-6.109541,2.004701,14.069013
4.470000,1.463405,1.556762,1.401879,1.193222,0.718965,0.227431,0.225863,-0.672443,-0.310622,-0.303773,-0.201193,-1.858640,-6.384362,1.991811,13.926130
4.480000,1.475349,1.563918,1.404137,1.195464,0.712231,0.224234,0.222502,-0.674356,-0.328515,-0.368919,-0.181351,-1.720262,-6.641781,1.976188,13.742884
4.490000,1.487314,1.571006,1.406363,1.197670,0.705478,0.220866,0.218477,-0.676071,-0.345034,-0.436546,-0.161678,-1.583908,-6.880502,1.957919,13.521793
4.500000,1.499302,1.578027,1.408554,1.199832,0.698710,0.217338,0.213763,-0.677590,-0.360201,-0.506462,-0.142201,-1.449944,-7.099229,1.937090,13.265376
4.510000,1.511311,1.584980,1.410709,1.201943,0.691927,0.213666,0.208338,-0.678916,-0.374042,-0.578684,-0.122931,-1.318671,-7.290997,1.913464,12.975149
4.520000,1.523341,1.591866,1.412827,1.203996,0.685132,0.209862,0.202184,-0.680050,-0.386585,-0.652462,-0.103925,-1.190497,-7.460873,1.887488,12.654754
4.530000,1.535391,1.598683,1.414906,1.205984,0.678327,0.205938,0.195284,-0.680995,-0.397863,-0.727827,-0.085189,-1.065667,-7.608253,1.859289,12.306833
4.540000,1.547460,1.605432,1.416946,1.207899,0.671513,0.201909,0.187623,-0.681754,-0.407910,-0.804550,-0.066746,-0.944443,-7.732536,1.828991,11.934025
4.550000,1.559548,1.612113,1.418944,1.209734,0.664692,0.197784,0.179189,-0.682331,-0.416765,-0.882398,-0.048616,-0.827061,-7.833120,1.796721,11.538971
4.560000,1.571654,1.618726,1.420901,1.211480,0.657867,0.193577,0.169969,-0.682728,-0.424466,-0.961352,-0.030811,-0.713797,-7.903826,1.762444,11.126035
4.570000,1.583778,1.625271,1.422815,1.213131,0.651038,0.189299,0.159960,-0.682948,-0.431055,-1.040643,-0.013366,-0.604674,-7.950311,1.726465,10.695924
4.580000,1.595917,1.631747,1.424687,1.214677,0.644208,0.184960,0.149155,-0.682996,-0.436574,-1.120278,0.003713,-0.499928,-7.972656,1.688928,10.251068
4.590000,1.608071,1.638155,1.426514,1.216111,0.637379,0.180571,0.137554,-0.682875,-0.441068,-1.200016,0.020408,-0.399694,-7.970941,1.649978,9.793898
4.600000,1.620239,1.644494,1.428298,1.217425,0.630551,0.176142,0.125155,-0.682589,-0.444583,-1.279617,0.036708,-0.304083,-7.945248,1.609761,9.326842
4.610000,1.632419,1.650766,1.430037,1.218612,0.623728,0.171682,0.111961,-0.682143,-0.447167,-1.359019,0.052600,-0.213323,-7.891165,1.568425,8.855894
4.620000,1.644610,1.656969,1.431732,1.219662,0.616909,0.167201,0.097977,-0.681539,-0.448866,-1.437563,0.068073,-0.127142,-7.813816,1.526110,8.379485
4.630000,1.656812,1.663104,1.433381,1.220569,0.610097,0.162708,0.083213,-0.680783,-0.449726,-1.515220,0.083119,-0.045745,-7.713829,1.482962,7.899609
4.640000,1.669021,1.669171,1.434986,1.221324,0.603294,0.158209,0.067677,-0.679878,-0.449796,-1.591766,0.097730,0.030845,-7.591836,1.439123,7.418259
4.650000,1.681238,1.675170,1.436545,1.221920,0.596500,0.153714,0.051382,-0.678829,-0.449125,-1.666985,0.111900,0.102622,-7.448467,1.394738,6.937429
4.660000,1.693459,1.681101,1.438060,1.222349,0.589718,0.149229,0.034341,-0.677642,-0.447762,-1.740781,0.125618,0.169426,-7.281470,1.350087,6.463563
4.670000,1.705684,1.686964,1.439530,1.222604,0.582948,0.144761,0.016572,-0.676319,-0.445752,-1.812678,0.138894,0.231708,-7.094712,1.305163,5.993660
4.680000,1.717910,1.692760,1.440955,1.222678,0.576192,0.140316,-0.001906,-0.674865,-0.443143,-1.882612,0.151721,0.289317,-6.889175,1.260093,5.529168
4.690000,1.730137,1.698488,1.442336,1.222564,0.569451,0.135900,-0.021073,-0.673286,-0.439981,-1.950402,0.164096,0.342314,-6.665843,1.215005,5.071537
4.700000,1.742361,1.704149,1.443673,1.222254,0.562727,0.131518,-0.040907,-0.671585,-0.436312,-2.015873,0.176021,0.390775,-6.425699,1.170027,4.622215
4.710000,1.754581,1.709743,1.444967,1.221743,0.556020,0.127175,-0.061383,-0.669767,-0.432183,-2.078911,0.187489,0.434613,-6.168508,1.125494,4.187152
4.720000,1.766795,1.715270,1.446217,1.221025,0.549332,0.122876,-0.082476,-0.667836,-0.427634,-2.139249,0.198523,0.474353,-5.896622,1.081302,3.762745
4.730000,1.779001,1.720729,1.447425,1.220092,0.542663,0.118624,-0.104159,-0.665798,-0.422710,-2.196799,0.209117,0.509906,-5.611172,1.037551,3.349890
4.740000,1.791196,1.726123,1.448590,1.218940,0.536016,0.114423,-0.126402,-0.663655,-0.417450,-2.251431,0.219276,0.541392,-5.313292,0.994346,2.949487
4.750000,1.803379,1.731450,1.449713,1.217562,0.529391,0.110276,-0.149177,-0.661414,-0.411895,-2.303027,0.229006,0.568940,-5.004113,0.951788,2.562433
4.760000,1.815547,1.736711,1.450795,1.215954,0.522788,0.106186,-0.172452,-0.659077,-0.406085,-2.351471,0.238305,0.592531,-4.684968,0.910209,2.193587
4.770000,1.827697,1.741906,1.451837,1.214112,0.516209,0.102155,-0.196196,-0.656649,-0.400056,-2.396687,0.247203,0.612684,-4.356766,0.869453,1.839400
4.780000,1.839828,1.747035,1.452839,1.212029,0.509655,0.098185,-0.220375,-0.654134,-0.393843,-2.438580,0.255697,0.629370,-4.020615,0.829596,1.500284
4.790000,1.851937,1.752099,1.453801,1.209703,0.503127,0.094279,-0.244956,-0.651536,-0.387480,-2.477077,0.263798,0.642741,-3.677624,0.790711,1.176653
4.800000,1.864022,1.757098,1.454725,1.207129,0.496625,0.090436,-0.269905,-0.648859,-0.380999,-2.512113,0.271515,0.652956,-3.328901,0.752872,0.868920
4.810000,1.876079,1.762031,1.455610,1.204303,0.490150,0.086659,-0.295186,-0.646107,-0.374432,-2.543590,0.278850,0.660051,-2.976783,0.716372,0.580611
4.820000,1.888107,1.766901,1.456458,1.201224,0.483703,0.082948,-0.320765,-0.643284,-0.367807,-2.571582,0.285836,0.664483,-2.620999,0.681040,0.308644
4.830000,1.900103,1.771706,1.457269,1.197887,0.477285,0.079303,-0.346606,-0.640392,-0.361151,-2.596001,0.292475,0.666278,-2.262507,0.646924,0.053048
4.840000,1.912064,1.776447,1.458044,1.194291,0.470895,0.075725,-0.372673,-0.637435,-0.354490,-2.616826,0.298779,0.665599,-1.902265,0.614071,-0.186144
4.850000,1.923987,1.781124,1.458784,1.190433,0.464536,0.072213,-0.398930,-0.634417,-0.347847,-2.634044,0.304761,0.662610,-1.541230,0.582527,-0.408902
4.860000,1.935871,1.785737,1.459489,1.186312,0.458207,0.068768,-0.425341,-0.631341,-0.341246,-2.647580,0.310427,0.657389,-1.182170,0.552525,-0.612998
4.870000,1.947713,1.790288,1.460159,1.181926,0.451909,0.065388,-0.451870,-0.628210,-0.334706,-2.657610,0.315808,0.650306,-0.824011,0.523905,-0.800867
4.880000,1.959509,1.794776,1.460797,1.177274,0.445643,0.062073,-0.478481,-0.625026,-0.328246,-2.664065,0.320910,0.641425,-0.467489,0.496694,-0.972744
4.890000,1.971257,1.799201,1.461401,1.172356,0.439409,0.058823,-0.505139,-0.621792,-0.321883,-2.666967,0.325747,0.630904,-0.113340,0.470915,-1.128870
4.900000,1.982955,1.803564,1.461973,1.167171,0.433208,0.055635,-0.531809,-0.618512,-0.315632,-2.666343,0.330333,0.618899,0.237699,0.446595,-1.269480
4.910000,1.994600,1.807865,1.462514,1.161720,0.427039,0.052510,-0.558454,-0.615187,-0.309510,-2.662147,0.334678,0.605511,0.582893,0.423902,-1.393436
4.920000,2.006189,1.812105,1.463024,1.156003,0.420904,0.049445,-0.585040,-0.611819,-0.303526,-2.654610,0.338809,0.591019,0.923750,0.402700,-1.502522
4.930000,2.017719,1.816283,1.463503,1.150020,0.414803,0.046439,-0.611535,-0.608411,-0.297693,-2.643688,0.342737,0.575508,1.259780,0.382996,-1.597142
4.940000,2.029188,1.820401,1.463953,1.143772,0.408736,0.043490,-0.637903,-0.604965,-0.292019,-2.629432,0.346474,0.559123,1.590491,0.364798,-1.677702
4.950000,2.040594,1.824458,1.464373,1.137262,0.402704,0.040598,-0.664112,-0.601482,-0.286513,-2.611898,0.350038,0.542000,1.915392,0.348111,-1.744610
4.960000,2.051933,1.828455,1.464765,1.130491,0.396706,0.037759,-0.690129,-0.597965,-0.281181,-2.591071,0.353437,0.524245,2.232109,0.333061,-1.797527
4.970000,2.063203,1.832392,1.465128,1.123460,0.390744,0.034974,-0.715923,-0.594414,-0.276029,-2.567193,0.356699,0.506059,2.542265,0.319523,-1.837695
4.980000,2.074401,1.836270,1.465465,1.116173,0.384818,0.032238,-0.741463,-0.590831,-0.271061,-2.540248,0.359833,0.487532,2.845598,0.307492,-1.865610
4.990000,2.085525,1.840089,1.465773,1.108632,0.378928,0.029552,-0.766718,-0.587218,-0.266279,-2.510305,0.362854,0.468786,3.141849,0.296959,-1.881769
5.000000,2.096573,1.843849,1.466056,1.100840,0.373074,0.026912,-0.791659,-0.583574,-0.261686,-2.477436,0.365777,0.449934,3.430757,0.287920,-1.886671
5.010000,2.107541,1.847550,1.466312,1.092800,0.367257,0.024317,-0.816257,-0.579902,-0.257281,-2.441654,0.368613,0.431076,3.710512,0.280467,-1.880495
5.020000,2.118428,1.851194,1.466542,1.084516,0.361476,0.021766,-0.840483,-0.576202,-0.253064,-2.403182,0.371386,0.412344,3.982593,0.274480,-1.864094
5.030000,2.129231,1.854780,1.466747,1.075991,0.355733,0.019255,-0.864311,-0.572475,-0.249033,-2.362028,0.374107,0.393826,4.246928,0.269941,-1.838005
5.040000,2.139947,1.858309,1.466927,1.067231,0.350027,0.016785,-0.887715,-0.568720,-0.245186,-2.318269,0.376790,0.375615,4.503447,0.266829,-1.802763
5.050000,2.150575,1.861781,1.467083,1.058239,0.344358,0.014351,-0.910668,-0.564939,-0.241520,-2.271985,0.379449,0.357799,4.752080,0.265126,-1.758905
5.060000,2.161111,1.865196,1.467215,1.049019,0.338728,0.011954,-0.933146,-0.561132,-0.238029,-2.223211,0.382093,0.340461,4.991670,0.264915,-1.706904
5.070000,2.171554,1.868555,1.467322,1.039577,0.333136,0.009590,-0.955125,-0.557297,-0.234709,-2.172130,0.384747,0.323684,5.223365,0.266060,-1.647367
5.080000,2.181902,1.871859,1.467406,1.029918,0.327582,0.007259,-0.976581,-0.553437,-0.231553,-2.118770,0.387419,0.307537,5.447226,0.268532,-1.580837
5.090000,2.192152,1.875107,1.467468,1.020048,0.322067,0.004958,-0.997493,-0.549549,-0.228556,-2.063211,0.390122,0.292088,5.663315,0.272297,-1.507858
5.100000,2.202302,1.878300,1.467506,1.009970,0.316591,0.002687,-1.017838,-0.545634,-0.225709,-2.005529,0.392869,0.277400,5.871695,0.277323,-1.428975
5.110000,2.212351,1.881439,1.467521,0.999693,0.311154,0.000444,-1.037596,-0.541691,-0.223005,-1.945780,0.395668,0.263530,6.071867,0.283696,-1.344812
5.120000,2.222295,1.884524,1.467515,0.989221,0.305757,-0.001773,-1.056747,-0.537720,-0.220435,-1.884092,0.398542,0.250523,6.264523,0.291253,-1.255823
5.130000,2.232134,1.887554,1.467486,0.978560,0.300400,-0.003965,-1.075272,-0.533720,-0.217991,-1.820515,0.401497,0.238428,6.449792,0.299947,-1.162539
5.140000,2.241866,1.890532,1.467435,0.967717,0.295083,-0.006134,-1.093152,-0.529690,-0.215664,-1.755121,0.404544,0.227285,6.627804,0.309732,-1.065494
5.150000,2.251488,1.893456,1.467363,0.956699,0.289806,-0.008279,-1.110369,-0.525629,-0.213442,-1.687982,0.407695,0.217129,6.798692,0.320563,-0.965223
5.160000,2.260999,1.896328,1.467270,0.945512,0.284571,-0.010403,-1.126906,-0.521536,-0.211317,-1.619169,0.410953,0.207997,6.962552,0.332529,-0.862446
5.170000,2.270398,1.899148,1.467155,0.934163,0.279376,-0.012506,-1.142747,-0.517410,-0.209279,-1.548753,0.414342,0.199896,7.119551,0.345431,-0.757487
5.180000,2.279682,1.901916,1.467020,0.922660,0.274223,-0.014589,-1.157876,-0.513249,-0.207316,-1.476800,0.417865,0.192853,7.269824,0.359207,-0.650856
5.190000,2.288851,1.904632,1.466864,0.911008,0.269111,-0.016652,-1.172278,-0.509052,-0.205418,-1.403378,0.421529,0.186882,7.413506,0.373794,-0.543063
5.200000,2.297902,1.907298,1.466687,0.899216,0.264042,-0.018697,-1.185938,-0.504818,-0.203575,-1.328552,0.425343,0.181994,7.550731,0.389130,-0.434619
5.210000,2.306834,1.909913,1.466490,0.887292,0.259015,-0.020724,-1.198844,-0.500544,-0.201775,-1.252402,0.429308,0.178203,7.682079,0.405303,-0.326347
5.220000,2.315647,1.912479,1.466273,0.875242,0.254031,-0.022733,-1.210982,-0.496231,-0.200007,-1.174951,0.433445,0.175479,7.807185,0.422081,-0.218407
5.230000,2.324339,1.914994,1.466035,0.863075,0.249090,-0.024724,-1.222339,-0.491875,-0.198261,-1.096279,0.437752,0.173832,7.926128,0.439384,-0.111272
5.240000,2.332908,1.917461,1.465778,0.850798,0.244194,-0.026698,-1.232904,-0.487475,-0.196527,-1.016448,0.442234,0.173250,8.038990,0.457129,-0.005413
5.250000,2.341355,1.919878,1.465501,0.838419,0.239341,-0.028655,-1.242665,-0.483030,-0.194793,-0.935519,0.446895,0.173718,8.145850,0.475236,0.098697
5.260000,2.349676,1.922247,1.465205,0.825947,0.234533,-0.030594,-1.251611,-0.478537,-0.193049,-0.853584,0.451733,0.175236,8.247623,0.493778,0.200095
5.270000,2.357873,1.924569,1.464890,0.813390,0.229770,-0.032515,-1.259733,-0.473994,-0.191285,-0.770624,0.456765,0.177733,8.343452,0.512501,0.298858
5.280000,2.365944,1.926843,1.464555,0.800756,0.225053,-0.034419,-1.267021,-0.469401,-0.189491,-0.686735,0.461984,0.181203,8.433316,0.531304,0.394576
5.290000,2.373888,1.929070,1.464201,0.788052,0.220383,-0.036305,-1.273465,-0.464754,-0.187658,-0.601977,0.467391,0.185613,8.517192,0.550089,0.486834
5.300000,2.381705,1.931251,1.463829,0.775289,0.215758,-0.038172,-1.279057,-0.460052,-0.185776,-0.516411,0.472985,0.190926,8.595058,0.568754,0.575221
5.310000,2.389394,1.933386,1.463438,0.762474,0.211182,-0.040021,-1.283791,-0.455294,-0.183836,-0.430139,0.478759,0.197132,8.667978,0.587342,0.658599
5.320000,2.396954,1.935475,1.463028,0.749616,0.206653,-0.041849,-1.287658,-0.450477,-0.181830,-0.343121,0.484724,0.204115,8.734711,0.605594,0.737369
5.330000,2.404386,1.937519,1.462601,0.736724,0.202172,-0.043657,-1.290651,-0.445599,-0.179751,-0.255466,0.490870,0.211863,8.795103,0.623391,0.811208
5.340000,2.411689,1.939518,1.462155,0.723806,0.197741,-0.045444,-1.292765,-0.440659,-0.177591,-0.167240,0.497190,0.220322,8.848998,0.640617,0.879793
5.350000,2.418862,1.941474,1.461692,0.710872,0.193359,-0.047208,-1.293995,-0.435654,-0.175343,-0.078508,0.503680,0.229440,8.896242,0.657155,0.942800
5.360000,2.425906,1.943386,1.461211,0.697929,0.189028,-0.048950,-1.294335,-0.430585,-0.173000,0.010615,0.510326,0.239198,8.937873,0.672994,0.998914
5.370000,2.432821,1.945254,1.460713,0.684988,0.184748,-0.050668,-1.293781,-0.425447,-0.170557,0.100172,0.517132,0.249442,8.972397,0.687896,1.048924
5.380000,2.439606,1.947081,1.460198,0.672057,0.180519,-0.052361,-1.292330,-0.420241,-0.168009,0.190038,0.524081,0.260155,8.999512,0.701732,1.092629
5.390000,2.446262,1.948865,1.459666,0.659144,0.176343,-0.054028,-1.289979,-0.414965,-0.165352,0.280137,0.531162,0.271273,9.018918,0.714369,1.129826
5.400000,2.452789,1.950608,1.459118,0.646260,0.172220,-0.055668,-1.286727,-0.409618,-0.162583,0.370390,0.538364,0.282729,9.030313,0.725679,1.160314
5.410000,2.459187,1.952310,1.458553,0.633413,0.168151,-0.057279,-1.282572,-0.404198,-0.159696,0.460670,0.545669,0.294505,9.034538,0.735583,1.182650
5.420000,2.465457,1.953971,1.457972,0.620612,0.164137,-0.058861,-1.277513,-0.398704,-0.156692,0.551000,0.553068,0.306415,9.030010,0.743892,1.198025
5.430000,2.471599,1.955593,1.457376,0.607865,0.160177,-0.060413,-1.271552,-0.393136,-0.153568,0.641240,0.560541,0.318442,9.016289,0.750468,1.206388
5.440000,2.477615,1.957175,1.456764,0.595184,0.156274,-0.061932,-1.264689,-0.387493,-0.150323,0.731294,0.568071,0.330519,8.992933,0.755173,1.207689
5.450000,2.483503,1.958718,1.456137,0.582575,0.152428,-0.063419,-1.256927,-0.381775,-0.146957,0.821065,0.575638,0.342573,8.959502,0.757871,1.201878
5.460000,2.489266,1.960223,1.455496,0.570048,0.148639,-0.064871,-1.248270,-0.375980,-0.143471,0.910412,0.583222,0.354588,8.916485,0.758413,1.187502
5.470000,2.494905,1.961691,1.454840,0.557612,0.144908,-0.066288,-1.238721,-0.370110,-0.139866,0.999316,0.590799,0.366362,8.862398,0.756674,1.166085
5.480000,2.500419,1.963122,1.454170,0.545276,0.141237,-0.067668,-1.228285,-0.364164,-0.136145,1.087621,0.598347,0.377887,8.796684,0.752520,1.137749
5.490000,2.505811,1.964516,1.453487,0.533049,0.137625,-0.069010,-1.216971,-0.358143,-0.132310,1.175209,0.605841,0.389094,8.718790,0.745815,1.102616
5.500000,2.511080,1.965875,1.452790,0.520940,0.134074,-0.070314,-1.204784,-0.352048,-0.128364,1.261955,0.613254,0.399917,8.628161,0.736422,1.060808
5.510000,2.516230,1.967198,1.452080,0.508957,0.130585,-0.071577,-1.191735,-0.345879,-0.124312,1.347703,0.620563,0.410345,8.524859,0.724123,1.011025
5.520000,2.521260,1.968486,1.451359,0.497108,0.127157,-0.072800,-1.177834,-0.339637,-0.120159,1.432378,0.627731,0.420180,8.407637,0.708876,0.954983
5.530000,2.526172,1.969741,1.450625,0.485403,0.123792,-0.073980,-1.163092,-0.333325,-0.115910,1.515808,0.634730,0.429424,8.275864,0.690556,0.892978
5.540000,2.530969,1.970963,1.449879,0.473849,0.120491,-0.075118,-1.147522,-0.326943,-0.111573,1.597844,0.641531,0.438020,8.128910,0.669036,0.825305
5.550000,2.535650,1.972151,1.449122,0.462455,0.117254,-0.076211,-1.131140,-0.320495,-0.107152,1.678333,0.648100,0.445913,7.966145,0.644193,0.752260
5.560000,2.540218,1.973308,1.448355,0.451229,0.114081,-0.077260,-1.113961,-0.313982,-0.102656,1.757103,0.654409,0.453098,7.787182,0.615762,0.672880
5.570000,2.544675,1.974433,1.447577,0.440178,0.110974,-0.078264,-1.096004,-0.307408,-0.098093,1.834009,0.660410,0.459411,7.591117,0.583774,0.588872
5.580000,2.549022,1.975527,1.446790,0.429311,0.107933,-0.079222,-1.077288,-0.300775,-0.093471,1.908866,0.666072,0.464862,7.377289,0.548118,0.500686
5.590000,2.553262,1.976592,1.445993,0.418635,0.104959,-0.080133,-1.057834,-0.294087,-0.088799,1.981493,0.671359,0.469412,7.145040,0.508688,0.408770
5.600000,2.557396,1.977627,1.445187,0.408157,0.102052,-0.080998,-1.037666,-0.287349,-0.084086,2.051703,0.676233,0.473026,6.893708,0.465375,0.313575
5.610000,2.561426,1.978633,1.444373,0.397884,0.099212,-0.081815,-1.016809,-0.280564,-0.079341,2.119304,0.680658,0.475710,6.622577,0.417969,0.214635
5.620000,2.565354,1.979611,1.443551,0.387823,0.096440,-0.082585,-0.995289,-0.273738,-0.074575,2.184089,0.684583,0.477352,6.331049,0.366475,0.113426
5.630000,2.569183,1.980562,1.442722,0.377980,0.093737,-0.083306,-0.973137,-0.266874,-0.069798,2.245855,0.687973,0.477973,6.018473,0.310796,0.010509
5.640000,2.572914,1.981486,1.441885,0.368362,0.091103,-0.083981,-0.950383,-0.259980,-0.065019,2.304386,0.690785,0.477559,5.684195,0.250837,-0.093556
5.650000,2.576551,1.982384,1.441042,0.358975,0.088538,-0.084607,-0.927061,-0.253061,-0.060250,2.359464,0.692975,0.476100,5.327561,0.186501,-0.198206
5.660000,2.580095,1.983257,1.440193,0.349823,0.086042,-0.085186,-0.903206,-0.246123,-0.055500,2.410857,0.694489,0.473612,4.948016,0.117964,-0.303313
5.670000,2.583548,1.984106,1.439339,0.340912,0.083615,-0.085717,-0.878857,-0.239173,-0.050781,2.458341,0.695307,0.470055,4.544797,0.044824,-0.407831
5.680000,2.586914,1.984930,1.438479,0.332247,0.081258,-0.086201,-0.854053,-0.232219,-0.046103,2.501672,0.695370,0.465459,4.117239,-0.033048,-0.511146
5.690000,2.590194,1.985731,1.437615,0.323833,0.078971,-0.086639,-0.828838,-0.225269,-0.041475,2.540603,0.694630,0.459838,3.664678,-0.115781,-0.612644
5.700000,2.593391,1.986510,1.436746,0.315672,0.076753,-0.087031,-0.803257,-0.218329,-0.036909,2.574880,0.693038,0.453214,3.186447,-0.203506,-0.711710
5.710000,2.596508,1.987266,1.435874,0.307768,0.074604,-0.087378,-0.777357,-0.211411,-0.032414,2.604215,0.690511,0.445610,2.682612,-0.295559,-0.807623
5.720000,2.599548,1.988002,1.434999,0.300126,0.072525,-0.087680,-0.751190,-0.204522,-0.028000,2.628409,0.687073,0.437069,2.151688,-0.392960,-0.899890
5.730000,2.602512,1.988717,1.434121,0.292745,0.070514,-0.087938,-0.724807,-0.197673,-0.023676,2.647156,0.682634,0.427626,1.592921,-0.495935,-0.987911
5.740000,2.605403,1.989412,1.433240,0.285630,0.068571,-0.088153,-0.698265,-0.190873,-0.019451,2.660172,0.677135,0.417327,1.005555,-0.604710,-1.071084
5.750000,2.608225,1.990089,1.432358,0.278780,0.066696,-0.088327,-0.671624,-0.184134,-0.015332,2.667169,0.670519,0.406223,0.388837,-0.719512,-1.148808
5.760000,2.610980,1.990746,1.431474,0.272197,0.064888,-0.088461,-0.644935,-0.177461,-0.011329,2.668567,0.663221,0.394347,-0.276135,-0.853122,-1.219880
5.770000,2.613670,1.991387,1.430589,0.265881,0.063146,-0.088554,-0.618275,-0.170874,-0.007447,2.662361,0.654001,0.381820,-0.969747,-0.991675,-1.284375
5.780000,2.616298,1.992010,1.429703,0.259832,0.061470,-0.088610,-0.591712,-0.164386,-0.003694,2.649082,0.643376,0.368683,-1.690531,-1.133860,-1.341769
5.790000,2.618868,1.992616,1.428817,0.254047,0.059858,-0.088629,-0.565318,-0.158011,-0.000076,2.628465,0.631316,0.355010,-2.437021,-1.278367,-1.391532
5.800000,2.621380,1.993207,1.427931,0.248524,0.058310,-0.088612,-0.539168,-0.151765,0.003404,2.600260,0.617805,0.340880,-3.207747,-1.423884,-1.433140
5.810000,2.623839,1.993783,1.427045,0.243258,0.056820,-0.088561,-0.513187,-0.145567,0.006740,2.578186,0.611469,0.326338,-4.353645,-1.787062,-1.465112
5.820000,2.626246,1.994344,1.426159,0.238254,0.055395,-0.088478,-0.487642,-0.139547,0.009930,2.528993,0.591889,0.311565,-5.477693,-2.121941,-1.487992
5.830000,2.628605,1.994891,1.425275,0.233503,0.054028,-0.088363,-0.462644,-0.133739,0.012971,2.468854,0.569218,0.296610,-6.535274,-2.400520,-1.501368
5.840000,2.630917,1.995424,1.424392,0.228999,0.052719,-0.088219,-0.438299,-0.128171,0.015862,2.398657,0.544159,0.281571,-7.481769,-2.594798,-1.504832
5.850000,2.633186,1.995945,1.423511,0.224735,0.051464,-0.088046,-0.414700,-0.122861,0.018602,2.319737,0.517696,0.266548,-8.272558,-2.676776,-1.497973
5.860000,2.635413,1.996454,1.422631,0.220703,0.050261,-0.087847,-0.391927,-0.117817,0.021193,2.233874,0.491091,0.251647,-8.863024,-2.618454,-1.480380
5.870000,2.637600,1.996951,1.421754,0.216893,0.049107,-0.087623,-0.370038,-0.113034,0.023636,2.143293,0.465888,0.236978,-9.208547,-2.391832,-1.451644
5.880000,2.639751,1.997436,1.420879,0.213299,0.047999,-0.087375,-0.349068,-0.108489,0.025934,2.050668,0.443909,0.222653,-9.264509,-1.968909,-1.411356
5.890000,2.641867,1.997911,1.420007,0.209909,0.046937,-0.087105,-0.329021,-0.104138,0.028091,1.959117,0.427257,0.208790,-8.986292,-1.321687,-1.359104
5.900000,2.643950,1.998375,1.419137,0.206715,0.045916,-0.086813,-0.309870,-0.099918,0.030112,1.872205,0.418316,0.195512,-8.329275,-0.422164,-1.294478
5.910000,2.646002,1.998829,1.418271,0.203709,0.044938,-0.086503,-0.291548,-0.095737,0.032003,1.793943,0.419748,0.182943,-7.248841,0.757659,-1.217069
5.920000,2.648025,1.999274,1.417407,0.200882,0.044002,-0.086174,-0.273948,-0.091479,0.033773,1.728788,0.434497,0.171215,-5.700371,2.245782,-1.126467
5.930000,2.650020,1.999709,1.416547,0.198228,0.043109,-0.085828,-0.256913,-0.086992,0.035431,1.681644,0.465785,0.160459,-3.639247,4.070206,-1.022261
5.940000,2.651990,2.000136,1.415691,0.195742,0.042263,-0.085466,-0.240237,-0.082096,0.036986,1.657861,0.517116,0.150816,-1.020849,6.258929,-0.904042
5.950000,2.653936,2.000555,1.414838,0.193423,0.041469,-0.085088,-0.223658,-0.076571,0.038451,1.663234,0.592271,0.142427,2.199442,8.839953,-0.771399
5.960000,2.655859,2.000966,1.413989,0.191270,0.040735,-0.084697,-0.206854,-0.070158,0.039840,1.704005,0.695316,0.135438,6.066243,11.841277,-0.623922
5.970000,2.657762,2.001370,1.413144,0.189288,0.040070,-0.084292,-0.189438,-0.062557,0.041165,1.786862,0.830591,0.129999,10.624174,15.290901,-0.461202
5.980000,2.659645,2.001767,1.412303,0.187485,0.039489,-0.083874,-0.170953,-0.053423,0.042445,1.918941,1.002721,0.126266,15.917853,19.216825,-0.282827
5.990000,2.661512,2.002160,1.411467,0.185874,0.039008,-0.083443,-0.150870,-0.042363,0.043697,2.107821,1.216609,0.124396,21.991898,23.647049,-0.088389
6.000000,2.663363,2.002548,1.410634,0.184475,0.038649,-0.083000,-0.128581,-0.028934,0.044940,2.361529,1.477437,0.124553,28.890930,28.609574,0.122523
