time,x,y,z,vx,vy,vz,ax,ay,az,jx,jy,jz,sx,sy,sz,roll,pitch,yaw,p,q,r
0.000000,-1.418942,-2.326147,-1.417550,-0.003805,-0.018014,-0.005151,-0.209060,0.768662,0.065157,4.192749,-24.899712,-0.479948,-25.347132,682.471185,0.538437,0.078698,0.021450,0.000000,-2.541927,-0.429777,0.000000
0.010000,-1.418990,-2.326292,-1.417598,-0.005690,-0.011463,-0.004523,-0.168355,0.552054,0.060384,3.952583,-18.590933,-0.474438,-22.723124,581.022923,0.569089,0.056554,0.017266,0.000000,-1.902812,-0.405479,-0.000000
0.020000,-1.419054,-2.326382,-1.417640,-0.007179,-0.006779,-0.003943,-0.129924,0.393633,0.055669,3.737558,-13.245363,-0.468461,-20.317788,489.741836,0.631245,0.040329,0.013319,0.000000,-1.357297,-0.383429,-0.000000
0.030000,-1.419132,-2.326432,-1.417677,-0.008295,-0.003427,-0.003409,-0.093527,0.284267,0.051018,3.545521,-8.763953,-0.461718,-18.124495,408.103557,0.721887,0.029119,0.009583,0.000000,-0.898513,-0.363574,0.000000
0.040000,-1.419219,-2.326454,-1.417709,-0.009056,-0.000958,-0.002922,-0.058944,0.215787,0.046438,3.374383,-5.052897,-0.453938,-16.136616,335.583720,0.837992,0.022097,0.006037,0.000000,-0.518245,-0.345794,-0.000000
0.050000,-1.419312,-2.326453,-1.417736,-0.009479,0.001001,-0.002480,-0.025977,0.180937,0.041943,3.222126,-2.023632,-0.444883,-14.347524,271.657959,0.976541,0.018521,0.002659,0.000000,-0.207924,-0.329926,-0.000000
0.060000,-1.419408,-2.326435,-1.417758,-0.009580,0.002752,-0.002083,0.005555,0.173320,0.037546,3.086792,0.407161,-0.434343,-12.750589,215.801907,1.134513,0.017734,-0.000568,0.000000,0.040860,-0.315792,0.000000
0.070000,-1.419503,-2.326398,-1.417777,-0.009372,0.004539,-0.001729,0.035809,0.187346,0.033262,2.966495,2.317557,-0.422138,-11.339183,167.491197,1.308888,0.019160,-0.003663,0.000000,0.236111,-0.303206,0.000000
0.080000,-1.419594,-2.326343,-1.417793,-0.008868,0.006555,-0.001417,0.064929,0.218180,0.029109,2.859412,3.780388,-0.408120,-10.106678,126.201463,1.496645,0.022303,-0.006638,0.000000,0.385333,-0.291984,-0.000000
0.090000,-1.419679,-2.326266,-1.417806,-0.008077,0.008945,-0.001146,0.093036,0.261688,0.025106,2.763788,4.863242,-0.392171,-9.046445,91.408339,1.694764,0.026736,-0.009508,0.000000,0.495495,-0.281947,-0.000000
0.100000,-1.419755,-2.326162,-1.417816,-0.007010,0.011819,-0.000915,0.120237,0.314386,0.021272,2.677931,5.628463,-0.374201,-8.151857,62.587458,1.900224,0.032104,-0.012283,0.000000,0.573025,-0.272922,-0.000000
0.110000,-1.419818,-2.326028,-1.417824,-0.005675,0.015254,-0.000720,0.146622,0.373389,0.017629,2.600220,6.133151,-0.354152,-7.416284,39.214454,2.110005,0.038108,-0.014972,0.000000,0.623812,-0.264742,-0.000000
0.120000,-1.419867,-2.325855,-1.417831,-0.004080,0.019300,-0.000561,0.172263,0.436354,0.014196,2.529098,6.429163,-0.331996,-6.833098,20.764959,2.321086,0.044509,-0.017584,0.000000,0.653210,-0.257251,0.000000
0.130000,-1.419899,-2.325639,-1.417836,-0.002232,0.023988,-0.000436,0.197221,0.501433,0.010996,2.463073,6.563114,-0.307736,-6.395670,6.714609,2.530446,0.051117,-0.020124,0.000000,0.666030,-0.250299,0.000000
0.140000,-1.419911,-2.325373,-1.417839,-0.000138,0.029331,-0.000341,0.221537,0.567215,0.008049,2.400721,6.576371,-0.281403,-6.097373,-3.460965,2.735066,0.057788,-0.022597,0.000000,0.666542,-0.243742,-0.000000
0.150000,-1.419901,-2.325051,-1.417842,0.002197,0.035331,-0.000274,0.245243,0.632679,0.005375,2.340683,6.505062,-0.253060,-5.931578,-10.286127,2.931925,0.064419,-0.025008,0.000000,0.658472,-0.237445,-0.000000
0.160000,-1.419867,-2.324665,-1.417845,0.004765,0.041981,-0.000232,0.268354,0.697138,0.002994,2.281669,6.380069,-0.222800,-5.891656,-14.285246,3.118002,0.070940,-0.027357,0.000000,0.644997,-0.231279,0.000000
0.170000,-1.419805,-2.324209,-1.417847,0.007562,0.049269,-0.000213,0.290875,0.760187,0.000925,2.222453,6.227030,-0.190746,-5.970979,-15.982687,3.290276,0.077310,-0.029645,0.000000,0.628746,-0.225121,0.000000
0.180000,-1.419715,-2.323677,-1.417849,0.010581,0.057180,-0.000213,0.312799,0.821653,-0.000816,2.161874,6.066340,-0.157051,-6.162919,-15.902816,3.445728,0.083513,-0.031872,0.000000,0.611805,-0.218857,0.000000
0.190000,-1.419593,-2.323063,-1.417852,0.013816,0.065697,-0.000228,0.334105,0.881540,-0.002212,2.098841,5.913150,-0.121898,-6.460847,-14.570001,3.581337,0.089549,-0.034037,0.000000,0.595713,-0.212376,-0.000000
0.200000,-1.419438,-2.322361,-1.417854,0.017261,0.074806,-0.000256,0.354764,0.939975,-0.003250,2.032326,5.777368,-0.085500,-6.858134,-12.508607,3.694082,0.095433,-0.036136,0.000000,0.581470,-0.205576,0.000000
0.210000,-1.419247,-2.321566,-1.417857,0.020907,0.084444,-0.000292,0.374805,0.998961,-0.003916,1.967732,5.829593,-0.047904,-7.508857,-14.434121,3.775926,0.101368,-0.038173,0.000000,0.586241,-0.198999,-0.000000
0.220000,-1.419019,-2.320670,-1.417860,0.024752,0.094723,-0.000333,0.394096,1.056506,-0.004205,1.889102,5.676433,-0.009852,-8.226004,-16.166591,3.829479,0.107152,-0.040134,0.000000,0.570386,-0.191034,-0.000000
0.230000,-1.418751,-2.319669,-1.417863,0.028786,0.105569,-0.000375,0.412563,1.112435,-0.004112,1.803078,5.506867,0.028583,-8.983270,-17.717185,3.852336,0.112770,-0.042013,0.000000,0.552986,-0.182355,-0.000000
0.240000,-1.418442,-2.318557,-1.417867,0.033000,0.116966,-0.000414,0.430132,1.166594,-0.003633,1.709391,5.322658,0.067084,-9.754348,-19.097073,3.842090,0.118207,-0.043802,0.000000,0.534224,-0.172935,0.000000
0.250000,-1.418091,-2.317328,-1.417872,0.037385,0.128894,-0.000446,0.446725,1.218845,-0.002771,1.608033,5.125457,0.105307,-10.512931,-20.317421,3.796335,0.123451,-0.045493,0.000000,0.514272,-0.162772,-0.000000
0.260000,-1.417694,-2.315978,-1.417876,0.041933,0.141335,-0.000468,0.462191,1.269097,-0.001520,1.492206,4.919729,0.143735,-11.054506,-21.463263,3.691177,0.128493,-0.047072,0.000000,0.493593,-0.151182,-0.000000
0.270000,-1.417251,-2.314500,-1.417881,0.046628,0.154268,-0.000475,0.476552,1.317204,0.000099,1.379131,4.699977,0.179964,-11.552796,-22.462857,3.548330,0.133319,-0.048540,0.000000,0.471599,-0.139891,-0.000000
0.280000,-1.416761,-2.312891,-1.417886,0.051460,0.167671,-0.000465,0.489758,1.363066,0.002074,1.261309,4.470952,0.214577,-12.003314,-23.318327,3.368018,0.137922,-0.049893,0.000000,0.448777,-0.128142,0.000000
0.290000,-1.416222,-2.311145,-1.417890,0.056419,0.181522,-0.000433,0.501764,1.406597,0.004384,1.139239,4.234084,0.247200,-12.401576,-24.031796,3.150466,0.142292,-0.051126,0.000000,0.425263,-0.115981,-0.000000
0.300000,-1.415632,-2.309259,-1.417894,0.061492,0.195795,-0.000376,0.512530,1.447726,0.007010,1.013467,3.990782,0.277463,-12.743097,-24.605388,2.895901,0.146425,-0.052235,0.000000,0.401185,-0.103458,-0.000000
0.310000,-1.414992,-2.307228,-1.417898,0.066666,0.210468,-0.000292,0.522001,1.486379,0.009933,0.882588,3.740869,0.305772,-12.973042,-25.001664,2.584925,0.150313,-0.053215,0.000000,0.376529,-0.090431,0.000000
0.320000,-1.414299,-2.305048,-1.417900,0.071928,0.225515,-0.000177,0.530175,1.522532,0.013114,0.751957,3.489419,0.329923,-13.143441,-25.267154,2.239787,0.153955,-0.054064,0.000000,0.351753,-0.077421,-0.000000
0.330000,-1.413553,-2.302716,-1.417901,0.077265,0.240911,-0.000029,0.537036,1.556160,0.016519,0.619912,3.235939,0.350463,-13.255974,-25.408825,1.863117,0.157348,-0.054781,0.000000,0.326807,-0.064261,-0.000000
0.340000,-1.412753,-2.300229,-1.417900,0.082664,0.256630,0.000154,0.542571,1.587248,0.020111,0.487024,2.981632,0.367089,-13.312320,-25.433644,1.457540,0.160491,-0.055365,0.000000,0.301793,-0.051003,-0.000000
0.350000,-1.411899,-2.297583,-1.417898,0.088112,0.272647,0.000374,0.546775,1.615794,0.023847,0.353847,2.727632,0.379526,-13.314161,-25.348580,1.025686,0.163384,-0.055814,0.000000,0.276808,-0.037697,0.000000
0.360000,-1.410991,-2.294775,-1.417893,0.093595,0.288937,0.000631,0.549647,1.641806,0.027692,0.220741,2.475009,0.388098,-13.258724,-25.160729,0.555680,0.166027,-0.056129,0.000000,0.251951,-0.024377,0.000000
0.370000,-1.410027,-2.291803,-1.417885,0.099101,0.305475,0.000928,0.551193,1.665302,0.031593,0.088643,2.224743,0.391223,-13.152687,-24.876914,0.066428,0.168423,-0.056309,0.000000,0.227279,-0.011125,0.000000
0.380000,-1.409009,-2.288665,-1.417874,0.104615,0.322235,0.001263,0.551424,1.686312,0.035500,-0.042151,1.977767,0.389377,-12.998274,-24.504086,-0.437668,0.170574,-0.056355,0.000000,0.202881,0.002029,0.000000
0.390000,-1.407935,-2.285358,-1.417860,0.110125,0.339193,0.001637,0.550355,1.704871,0.039364,-0.171169,1.734935,0.382435,-12.797711,-24.049197,-0.952204,0.172482,-0.056268,0.000000,0.178827,0.015039,0.000000
0.400000,-1.406806,-2.281880,-1.417841,0.115618,0.356324,0.002050,0.548008,1.721027,0.043132,-0.297959,1.497033,0.370313,-12.553223,-23.519198,-1.472776,0.174152,-0.056050,0.000000,0.155183,0.027863,-0.000000
0.410000,-1.405623,-2.278231,-1.417818,0.121081,0.373606,0.002500,0.544405,1.734834,0.046754,-0.422081,1.265036,0.353099,-12.267381,-22.927553,-1.998134,0.175588,-0.055703,0.000000,0.132037,0.040455,0.000000
0.420000,-1.404385,-2.274408,-1.417791,0.126502,0.391013,0.002984,0.539576,1.746348,0.050176,-0.543160,1.038980,0.330502,-11.942021,-22.273903,-2.520335,0.176794,-0.055229,0.000000,0.109381,0.052781,0.000000
0.430000,-1.403093,-2.270410,-1.417759,0.131868,0.408525,0.003502,0.533554,1.755636,0.053347,-0.660797,0.819744,0.302719,-11.579327,-21.564404,-3.034590,0.177777,-0.054632,0.000000,0.087297,0.064797,-0.000000
0.440000,-1.401748,-2.266237,-1.417721,0.137169,0.426119,0.004050,0.526373,1.762768,0.056214,-0.774629,0.607857,0.269853,-11.181481,-20.805211,-3.536110,0.178542,-0.053914,0.000000,0.065835,0.076464,0.000000
0.450000,-1.400350,-2.261888,-1.417678,0.142392,0.443774,0.004625,0.518075,1.767819,0.058727,-0.884316,0.403785,0.232055,-10.750666,-20.002476,-4.020105,0.179096,-0.053079,0.000000,0.045040,0.087745,-0.000000
0.460000,-1.398900,-2.257361,-1.417628,0.147527,0.461469,0.005224,0.508702,1.770874,0.060836,-0.989533,0.208199,0.189217,-10.289223,-19.169085,-4.474003,0.179446,-0.052132,0.000000,0.024974,0.098605,-0.000000
0.470000,-1.397400,-2.252658,-1.417573,0.152563,0.479185,0.005841,0.498300,1.772011,0.062497,-1.089998,0.020811,0.142315,-9.799158,-18.303637,-4.901749,0.179598,-0.051076,0.000000,0.005626,0.109005,0.000000
0.480000,-1.395849,-2.247778,-1.417511,0.157490,0.496903,0.006472,0.486919,1.771319,0.063668,-1.185428,-0.157785,0.091282,-9.282633,-17.411464,-5.299509,0.179561,-0.049918,0.000000,-0.012946,0.118915,-0.000000
0.490000,-1.394250,-2.242720,-1.417444,0.162298,0.514605,0.007112,0.474609,1.768886,0.064310,-1.275570,-0.327347,0.036437,-8.741810,-16.497896,-5.663443,0.179342,-0.048661,0.000000,-0.030711,0.128303,-0.000000
0.500000,-1.392604,-2.237486,-1.417369,0.166979,0.532275,0.007756,0.461426,1.764803,0.064385,-1.360191,-0.487689,-0.021862,-8.178854,-15.568263,-5.989717,0.178949,-0.047312,0.000000,-0.047639,0.137138,-0.000000
0.510000,-1.390911,-2.232075,-1.417288,0.171524,0.549896,0.008398,0.447424,1.759166,0.063856,-1.439073,-0.638387,-0.083829,-7.596113,-14.635221,-6.259076,0.178392,-0.045876,0.000000,-0.063690,0.145395,-0.000000
0.520000,-1.389174,-2.226488,-1.417201,0.175925,0.567453,0.009032,0.432664,1.752066,0.062701,-1.512045,-0.780046,-0.147587,-6.995543,-13.695879,-6.484989,0.177678,-0.044359,0.000000,-0.078884,0.153042,0.000000
0.530000,-1.387393,-2.220726,-1.417108,0.180175,0.584933,0.009650,0.417204,1.743597,0.060897,-1.578932,-0.912298,-0.213378,-6.379282,-12.754669,-6.665508,0.176817,-0.042768,0.000000,-0.093184,0.160060,-0.000000
0.540000,-1.385571,-2.214790,-1.417008,0.184267,0.602321,0.010247,0.401106,1.733852,0.058428,-1.639586,-1.035147,-0.280739,-5.749473,-11.816025,-6.798682,0.175818,-0.041109,0.000000,-0.106578,0.166428,0.000000
0.550000,-1.383708,-2.208680,-1.416903,0.188195,0.619606,0.010816,0.384433,1.722925,0.055279,-1.693883,-1.148642,-0.349187,-5.108254,-10.884380,-6.882564,0.174689,-0.039390,0.000000,-0.119055,0.172127,0.000000
0.560000,-1.381807,-2.202398,-1.416792,0.191954,0.636776,0.011351,0.367250,1.710914,0.051434,-1.741675,-1.252522,-0.418943,-4.458900,-9.973044,-6.896937,0.173440,-0.037616,0.000000,-0.130588,0.177139,0.000000
0.570000,-1.379870,-2.195945,-1.416676,0.195538,0.653821,0.011843,0.349622,1.697905,0.046900,-1.782986,-1.347756,-0.487772,-3.802280,-9.076487,-6.860356,0.172080,-0.035795,0.000000,-0.141228,0.181458,0.000000
0.580000,-1.377897,-2.189322,-1.416555,0.198945,0.670731,0.012286,0.331613,1.683988,0.041681,-1.817703,-1.434112,-0.555981,-3.140395,-8.198055,-6.773111,0.170618,-0.033935,0.000000,-0.150955,0.185070,-0.000000
0.590000,-1.375892,-2.182531,-1.416431,0.202170,0.687498,0.012674,0.313290,1.669252,0.035785,-1.845783,-1.511788,-0.623066,-2.475247,-7.341094,-6.635490,0.169064,-0.032042,0.000000,-0.159774,0.187971,-0.000000
0.600000,-1.373855,-2.175573,-1.416302,0.205210,0.704113,0.013000,0.294719,1.653781,0.029225,-1.867204,-1.581016,-0.688524,-1.808838,-6.508950,-6.447781,0.167426,-0.030123,0.000000,-0.167697,0.190155,0.000000
0.610000,-1.371788,-2.168449,-1.416171,0.208063,0.720571,0.013257,0.275969,1.637663,0.022014,-1.881864,-1.641650,-0.752506,-1.145656,-5.715356,-6.193829,0.165713,-0.028187,0.000000,-0.174709,0.191614,0.000000
0.620000,-1.369694,-2.161162,-1.416037,0.210729,0.736865,0.013438,0.257104,1.620974,0.014184,-1.890014,-1.694961,-0.812976,-0.484913,-4.952000,-5.892379,0.163935,-0.026240,0.000000,-0.180901,0.192371,-0.000000
0.630000,-1.367574,-2.153712,-1.415902,0.213205,0.752989,0.013539,0.238190,1.603789,0.005765,-1.891576,-1.740798,-0.870203,0.171694,-4.220957,-5.545733,0.162098,-0.024290,0.000000,-0.186262,0.192420,-0.000000
0.640000,-1.365430,-2.146103,-1.415767,0.215493,0.768939,0.013552,0.219294,1.586181,-0.003208,-1.886600,-1.779495,-0.923748,0.822468,-3.524302,-5.156192,0.160212,-0.022343,0.000000,-0.190819,0.191770,0.000000
0.650000,-1.363265,-2.138334,-1.415632,0.217591,0.784711,0.013473,0.200480,1.568221,-0.012696,-1.875152,-1.811405,-0.973192,1.465711,-2.864108,-4.726057,0.158284,-0.020407,0.000000,-0.194600,0.190431,0.000000
0.660000,-1.361079,-2.130409,-1.415498,0.219503,0.800302,0.013296,0.181814,1.549979,-0.022661,-1.857178,-1.836478,-1.018585,2.096222,-2.253249,-4.246420,0.156323,-0.018489,0.000000,-0.197604,0.188403,-0.000000
0.670000,-1.358875,-2.122329,-1.415366,0.221228,0.815710,0.013018,0.163357,1.531512,-0.033051,-1.833106,-1.856119,-1.058505,2.716237,-1.681679,-3.732165,0.154335,-0.016595,0.000000,-0.199951,0.185732,0.000000
0.680000,-1.356655,-2.114095,-1.415238,0.222771,0.830932,0.012634,0.145172,1.512875,-0.043814,-1.802892,-1.870245,-1.093125,3.324485,-1.150150,-3.186968,0.152326,-0.014732,0.000000,-0.201639,0.182421,0.000000
0.690000,-1.354421,-2.105711,-1.415114,0.224133,0.845967,0.012141,0.127320,1.494124,-0.054895,-1.766660,-1.879258,-1.122154,3.919699,-0.659414,-2.614502,0.150304,-0.012906,0.000000,-0.202709,0.178488,0.000000
0.700000,-1.352173,-2.097177,-1.414995,0.225318,0.860814,0.011535,0.109859,1.475306,-0.066237,-1.724546,-1.883571,-1.145337,4.500610,-0.210225,-2.018442,0.148274,-0.011123,0.000000,-0.203202,0.173954,-0.000000
0.710000,-1.349915,-2.088495,-1.414883,0.226332,0.875473,0.010816,0.092849,1.456471,-0.077783,-1.676556,-1.883223,-1.162630,5.062317,0.187042,-1.398078,0.146242,-0.009390,0.000000,-0.203127,0.168826,0.000000
0.720000,-1.347647,-2.079668,-1.414779,0.227177,0.889944,0.009979,0.076346,1.437654,-0.089469,-1.623192,-1.879540,-1.173442,5.607628,0.542437,-0.762005,0.144213,-0.007712,0.000000,-0.202613,0.163160,0.000000
0.730000,-1.345372,-2.070697,-1.414684,0.227860,0.904226,0.009026,0.060403,1.418891,-0.101231,-1.564461,-1.872512,-1.177832,6.135720,0.856386,-0.114436,0.142191,-0.006094,0.000000,-0.201666,0.156965,-0.000000
0.740000,-1.343090,-2.061584,-1.414599,0.228387,0.918322,0.007955,0.045074,1.400213,-0.113004,-1.500538,-1.862550,-1.175706,6.645769,1.129315,0.540419,0.140181,-0.004542,0.000000,-0.200331,0.150265,-0.000000
0.750000,-1.340805,-2.052331,-1.414525,0.228764,0.932231,0.006766,0.030409,1.381648,-0.124723,-1.431608,-1.850061,-1.167013,7.136951,1.361651,1.198349,0.138186,-0.003061,0.000000,-0.198654,0.143083,-0.000000
0.760000,-1.338516,-2.042940,-1.414464,0.228998,0.945955,0.005461,0.016459,1.363222,-0.136321,-1.357755,-1.835170,-1.151652,7.605680,1.546735,1.852853,0.136209,-0.001655,0.000000,-0.196652,0.135433,0.000000
0.770000,-1.336225,-2.033412,-1.414417,0.229096,0.959496,0.004040,0.003269,1.344951,-0.147734,-1.279438,-1.818940,-1.129871,8.054233,1.692945,2.502289,0.134253,-0.000328,0.000000,-0.194439,0.127368,0.000000
0.780000,-1.333934,-2.023751,-1.414384,0.229066,0.972855,0.002507,-0.009115,1.326848,-0.158897,-1.196739,-1.801436,-1.101637,8.482125,1.801576,3.142726,0.132321,0.000914,0.000000,-0.192027,0.118898,0.000000
0.790000,-1.331644,-2.013956,-1.414367,0.228916,0.986033,0.000863,-0.020651,1.308925,-0.169746,-1.109866,-1.783029,-1.067059,8.888868,1.873921,3.770232,0.130413,0.002069,0.000000,-0.189459,0.110048,-0.000000
0.800000,-1.329356,-2.004030,-1.414367,0.228656,0.999034,-0.000887,-0.031299,1.291189,-0.180218,-1.019034,-1.764074,-1.026288,9.273979,1.911274,4.380877,0.128532,0.003133,0.000000,-0.186778,0.100842,0.000000
0.810000,-1.327071,-1.993976,-1.414385,0.228293,1.011858,-0.002740,-0.041019,1.273646,-0.190248,-0.924412,-1.744761,-0.979212,9.635736,1.911018,4.963174,0.126678,0.004102,0.000000,-0.184005,0.091298,0.000000
0.820000,-1.324791,-1.983794,-1.414422,0.227839,1.024507,-0.004690,-0.049776,1.256293,-0.199783,-0.826339,-1.725786,-0.926767,9.975041,1.878836,5.521672,0.124852,0.004973,0.000000,-0.181224,0.081452,-0.000000
0.830000,-1.322515,-1.973486,-1.414479,0.227301,1.036984,-0.006734,-0.057535,1.239128,-0.208766,-0.724987,-1.707285,-0.868868,10.291557,1.816502,6.053366,0.123054,0.005743,0.000000,-0.178453,0.071319,-0.000000
0.840000,-1.320245,-1.963055,-1.414557,0.226691,1.049290,-0.008864,-0.064265,1.222145,-0.217143,-0.620585,-1.689550,-0.805799,10.584950,1.725787,6.555249,0.121283,0.006409,0.000000,-0.175726,0.060922,0.000000
0.850000,-1.317981,-1.952501,-1.414657,0.226019,1.061428,-0.011074,-0.069937,1.205334,-0.224865,-0.513366,-1.672858,-0.737872,10.854886,1.608466,7.024317,0.119539,0.006969,0.000000,-0.173078,0.050282,-0.000000
0.860000,-1.315725,-1.941827,-1.414779,0.225296,1.073398,-0.013359,-0.074524,1.188684,-0.231881,-0.403577,-1.657425,-0.665004,11.101304,1.465333,7.446758,0.117821,0.007421,0.000000,-0.170531,0.039421,-0.000000
0.870000,-1.313475,-1.931034,-1.414924,0.224533,1.085202,-0.015709,-0.078001,1.172180,-0.238152,-0.291433,-1.643584,-0.588580,11.323562,1.299258,7.831694,0.116128,0.007763,0.000000,-0.168137,0.028355,-0.000000
0.880000,-1.311234,-1.920123,-1.415093,0.223740,1.096842,-0.018119,-0.080346,1.155806,-0.243640,-0.177188,-1.631510,-0.508501,11.521291,1.112134,8.177441,0.114458,0.007992,0.000000,-0.165913,0.017106,0.000000
0.890000,-1.309001,-1.909097,-1.415287,0.222930,1.108318,-0.020580,-0.081539,1.139543,-0.248311,-0.061090,-1.621405,-0.425167,11.694124,0.905851,8.482318,0.112809,0.008106,0.000000,-0.163886,0.005694,0.000000
0.900000,-1.306776,-1.897957,-1.415505,0.222113,1.119633,-0.023083,-0.081562,1.123371,-0.252134,0.056610,-1.613451,-0.338996,11.841692,0.682303,8.744641,0.111179,0.008106,0.000000,-0.162079,-0.005862,0.000000
0.910000,-1.304558,-1.886705,-1.415748,0.221302,1.130786,-0.025619,-0.080402,1.107266,-0.255078,0.175619,-1.607854,-0.249949,11.964631,0.444490,8.950781,0.109567,0.007988,0.000000,-0.160515,-0.017540,-0.000000
0.920000,-1.302349,-1.875342,-1.416017,0.220509,1.141778,-0.028181,-0.078046,1.091206,-0.257127,0.295771,-1.604656,-0.159596,12.061445,0.193061,9.112465,0.107968,0.007752,0.000000,-0.159214,-0.029329,-0.000000
0.930000,-1.300148,-1.863870,-1.416312,0.219745,1.152610,-0.030759,-0.074484,1.075165,-0.258265,0.416759,-1.604033,-0.067849,12.131644,-0.070229,9.229470,0.106381,0.007398,0.000000,-0.158194,-0.041207,0.000000
0.940000,-1.297954,-1.852291,-1.416633,0.219023,1.163282,-0.033343,-0.069709,1.059116,-0.258481,0.538314,-1.606094,0.024844,12.174737,-0.343622,9.301578,0.104803,0.006923,0.000000,-0.157472,-0.053152,-0.000000
0.950000,-1.295768,-1.840605,-1.416979,0.218355,1.173792,-0.035925,-0.063717,1.043033,-0.257767,0.660162,-1.610933,0.118033,12.190232,-0.625362,9.328568,0.103231,0.006329,0.000000,-0.157063,-0.065146,0.000000
0.960000,-1.293587,-1.828815,-1.417351,0.217753,1.184142,-0.038496,-0.056506,1.026887,-0.256115,0.782005,-1.618709,0.211709,12.178121,-0.911538,9.298997,0.101661,0.005613,0.000000,-0.156982,-0.077166,0.000000
0.970000,-1.291412,-1.816923,-1.417749,0.217229,1.194330,-0.041045,-0.048078,1.010650,-0.253534,0.903607,-1.629277,0.304366,12.137372,-1.202813,9.225242,0.100090,0.004777,0.000000,-0.157231,-0.089195,-0.000000
0.980000,-1.289242,-1.804929,-1.418172,0.216796,1.204355,-0.043563,-0.038436,0.994292,-0.250031,1.024656,-1.642777,0.396070,12.067433,-1.497692,9.108456,0.098515,0.003821,0.000000,-0.157825,-0.101209,0.000000
0.990000,-1.287076,-1.792836,-1.418620,0.216464,1.214215,-0.046042,-0.027587,0.977784,-0.245617,1.144857,-1.659238,0.486396,11.967755,-1.794683,8.949793,0.096933,0.002743,0.000000,-0.158770,-0.113185,0.000000
1.000000,-1.284912,-1.780646,-1.419092,0.216248,1.223910,-0.048473,-0.015542,0.961097,-0.240309,1.263910,-1.678673,0.574930,11.837787,-2.092293,8.750406,0.095339,0.001546,0.000000,-0.160074,-0.125099,-0.000000
1.010000,-1.282751,-1.768359,-1.419589,0.216158,1.233436,-0.050846,-0.002313,0.944200,-0.234122,1.381573,-1.701175,0.661628,11.675375,-2.386642,8.502445,0.093730,0.000230,0.000000,-0.161746,-0.136932,0.000000
1.020000,-1.280589,-1.755977,-1.420109,0.216205,1.242793,-0.053153,0.012083,0.927064,-0.227085,1.497385,-1.726505,0.745257,11.481770,-2.678917,8.217171,0.092102,-0.001204,0.000000,-0.163774,-0.148642,-0.000000
1.030000,-1.278426,-1.743503,-1.420652,0.216403,1.251977,-0.055385,0.027627,0.909660,-0.219227,1.611103,-1.754743,0.825855,11.256617,-2.967918,7.896839,0.090453,-0.002755,0.000000,-0.166167,-0.160209,0.000000
1.040000,-1.276260,-1.730938,-1.421217,0.216762,1.260985,-0.057534,0.044297,0.891959,-0.210579,1.722411,-1.785849,0.903084,10.999563,-3.252443,7.543706,0.088778,-0.004421,0.000000,-0.168924,-0.171604,-0.000000
1.050000,-1.274090,-1.718284,-1.421802,0.217293,1.269815,-0.059594,0.062067,0.873934,-0.201178,1.830987,-1.819772,0.976627,10.710253,-3.531293,7.160028,0.087073,-0.006200,0.000000,-0.172043,-0.182797,0.000000
1.060000,-1.271914,-1.705543,-1.422408,0.218007,1.278463,-0.061556,0.080909,0.855554,-0.191058,1.936702,-1.856544,1.046417,10.383418,-3.800935,6.742349,0.085336,-0.008090,0.000000,-0.175528,-0.193776,0.000000
1.070000,-1.269729,-1.692716,-1.423033,0.218914,1.286925,-0.063413,0.100789,0.836794,-0.180264,2.038767,-1.895869,1.111645,10.024221,-4.062787,6.299337,0.083562,-0.010088,0.000000,-0.179357,-0.204461,0.000000
1.080000,-1.267535,-1.679805,-1.423676,0.220026,1.295197,-0.065159,0.121672,0.817628,-0.168840,2.137079,-1.937771,1.172329,9.632911,-4.315932,5.833948,0.081747,-0.012192,0.000000,-0.183532,-0.214842,0.000000
1.090000,-1.265328,-1.666812,-1.424336,0.221351,1.303276,-0.066788,0.143517,0.798030,-0.156833,2.231319,-1.982156,1.228259,9.209736,-4.559457,5.349138,0.079890,-0.014398,0.000000,-0.188043,-0.224883,0.000000
1.100000,-1.263107,-1.653740,-1.425011,0.222899,1.311156,-0.068294,0.166283,0.777977,-0.144291,2.321169,-2.028925,1.279257,8.754943,-4.792446,4.847861,0.077986,-0.016703,0.000000,-0.192882,-0.234549,0.000000
1.110000,-1.260869,-1.640590,-1.425701,0.224679,1.318834,-0.069672,0.189929,0.757443,-0.131264,2.406663,-2.078065,1.325247,8.259958,-5.011488,4.331175,0.076031,-0.019103,0.000000,-0.198048,-0.243839,-0.000000
1.120000,-1.258613,-1.627364,-1.426404,0.226700,1.326304,-0.070918,0.214400,0.736408,-0.117804,2.486661,-2.129225,1.365930,7.734931,-5.218471,3.804168,0.074024,-0.021593,0.000000,-0.203504,-0.252634,-0.000000
1.130000,-1.256335,-1.614065,-1.427119,0.228970,1.333560,-0.072027,0.239644,0.714852,-0.103963,2.561265,-2.182393,1.401306,7.181193,-5.412784,3.270026,0.071960,-0.024168,0.000000,-0.209249,-0.260936,-0.000000
1.140000,-1.254032,-1.600694,-1.427844,0.231496,1.340599,-0.072996,0.265606,0.692754,-0.089796,2.630194,-2.237437,1.431318,6.600070,-5.593817,2.731940,0.069838,-0.026823,0.000000,-0.215266,-0.268710,0.000000
1.150000,-1.251704,-1.587253,-1.428579,0.234284,1.347413,-0.073822,0.292228,0.670097,-0.075355,2.693180,-2.294223,1.455942,5.992892,-5.760962,2.193096,0.067654,-0.029553,0.000000,-0.221539,-0.275921,0.000000
1.160000,-1.249346,-1.573746,-1.429320,0.237342,1.353999,-0.074502,0.319454,0.646863,-0.060695,2.750474,-2.352734,1.475121,5.348256,-5.910425,1.658386,0.065406,-0.032353,0.000000,-0.228064,-0.282585,0.000000
1.170000,-1.246956,-1.560174,-1.430068,0.240675,1.360349,-0.075035,0.347216,0.623038,-0.045870,2.800641,-2.412524,1.489052,4.681780,-6.045171,1.129086,0.063092,-0.035215,0.000000,-0.234790,-0.288548,0.000000
1.180000,-1.244531,-1.546540,-1.430821,0.244288,1.366458,-0.075419,0.375445,0.598608,-0.030932,2.844046,-2.473587,1.497730,3.996352,-6.164978,0.608178,0.060710,-0.038133,0.000000,-0.241713,-0.293837,0.000000
1.190000,-1.242069,-1.532846,-1.431576,0.248185,1.372319,-0.075653,0.404073,0.573562,-0.015933,2.880514,-2.535773,1.501254,3.294859,-6.269629,0.098641,0.058257,-0.041100,0.000000,-0.248811,-0.298425,-0.000000
1.200000,-1.239567,-1.519094,-1.432333,0.252370,1.377927,-0.075738,0.433031,0.547890,-0.000923,2.909899,-2.598929,1.499751,2.580190,-6.358903,-0.396545,0.055733,-0.044109,0.000000,-0.256064,-0.302285,0.000000
1.210000,-1.237021,-1.505288,-1.433090,0.256846,1.383275,-0.075672,0.462254,0.521579,0.014044,2.932728,-2.663103,1.493212,1.838947,-6.427439,-0.870146,0.053135,-0.047153,0.000000,-0.263471,-0.305462,0.000000
1.220000,-1.234429,-1.491430,-1.433846,0.261616,1.388356,-0.075457,0.491661,0.494626,0.028925,2.947387,-2.727656,1.482224,1.092295,-6.480788,-1.323957,0.050463,-0.050224,0.000000,-0.270957,-0.307782,0.000000
1.230000,-1.231788,-1.477522,-1.434599,0.266680,1.393165,-0.075094,0.521177,0.467024,0.043674,2.954573,-2.792669,1.466807,0.345117,-6.519360,-1.755520,0.047716,-0.053314,0.000000,-0.278525,-0.309307,-0.000000
1.240000,-1.229094,-1.463567,-1.435347,0.272040,1.397695,-0.074584,0.550728,0.438771,0.058247,2.954304,-2.857996,1.447196,-0.397705,-6.543566,-2.162374,0.044892,-0.056415,0.000000,-0.286152,-0.310030,-0.000000
1.250000,-1.226346,-1.449569,-1.436090,0.277694,1.401938,-0.073930,0.580239,0.409864,0.072605,2.946649,-2.923494,1.423650,-1.131291,-6.553814,-2.542061,0.041992,-0.059518,0.000000,-0.293817,-0.309949,-0.000000
1.260000,-1.223539,-1.435530,-1.436826,0.283644,1.405890,-0.073133,0.609640,0.380300,0.086705,2.932044,-2.989098,1.396165,-1.858811,-6.548727,-2.884836,0.039016,-0.062617,0.000000,-0.301506,-0.309100,-0.000000
1.270000,-1.220672,-1.421452,-1.437552,0.289887,1.409542,-0.072197,0.638856,0.350082,0.100517,2.909899,-3.054505,1.365732,-2.566345,-6.530721,-3.196419,0.035962,-0.065702,0.000000,-0.309179,-0.307421,-0.000000
1.280000,-1.217741,-1.407340,-1.438269,0.296420,1.412889,-0.071124,0.667815,0.319211,0.114010,2.880803,-3.119671,1.332346,-3.248026,-6.500425,-3.475241,0.032832,-0.068767,0.000000,-0.316823,-0.304965,0.000000
1.290000,-1.214743,-1.393195,-1.438974,0.303242,1.415924,-0.069917,0.696449,0.287690,0.127155,2.845044,-3.184475,1.296342,-3.897985,-6.458468,-3.719738,0.029626,-0.071802,0.000000,-0.324422,-0.301758,-0.000000
1.300000,-1.211675,-1.379022,-1.439667,0.310348,1.418641,-0.068582,0.724695,0.255523,0.139929,2.802969,-3.248804,1.258071,-4.510357,-6.405478,-3.928341,0.026344,-0.074802,0.000000,-0.331955,-0.297833,0.000000
1.310000,-1.208535,-1.364824,-1.440346,0.317734,1.421032,-0.067120,0.752482,0.222717,0.152303,2.754317,-3.312431,1.217240,-5.062486,-6.345096,-4.082810,0.022987,-0.077758,0.000000,-0.339395,-0.293157,0.000000
1.320000,-1.205319,-1.350603,-1.441009,0.325396,1.423093,-0.065537,0.779763,0.189277,0.164269,2.701127,-3.375537,1.175793,-5.567346,-6.274570,-4.200295,0.019557,-0.080665,0.000000,-0.346752,-0.287950,0.000000
1.330000,-1.202026,-1.336363,-1.441656,0.333328,1.424816,-0.063836,0.806488,0.155209,0.175816,2.643141,-3.437889,1.133355,-6.021127,-6.194160,-4.281269,0.016053,-0.083516,0.000000,-0.353998,-0.282184,0.000000
1.340000,-1.198652,-1.322108,-1.442285,0.341524,1.426195,-0.062022,0.832612,0.120522,0.186934,2.580888,-3.499388,1.090288,-6.420017,-6.104126,-4.326207,0.012477,-0.086308,0.000000,-0.361120,-0.275914,0.000000
1.350000,-1.195195,-1.307840,-1.442896,0.349978,1.427224,-0.060099,0.858094,0.085224,0.197621,2.514936,-3.559940,1.046950,-6.760203,-6.004728,-4.335585,0.008831,-0.089034,0.000000,-0.368104,-0.269202,0.000000
1.360000,-1.191651,-1.293564,-1.443487,0.358684,1.427897,-0.058071,0.882876,0.049334,0.207865,2.443678,-3.618783,1.002855,-6.981946,-5.913150,-4.288695,0.005116,-0.091688,0.000000,-0.374869,-0.261879,-0.000000
1.370000,-1.188020,-1.279283,-1.444057,0.367634,1.428209,-0.055943,0.906961,0.012852,0.217680,2.372999,-3.677412,0.960337,-7.144211,-5.810655,-4.209788,0.001334,-0.094270,0.000000,-0.381566,-0.254575,-0.000000
1.380000,-1.184298,-1.265001,-1.444606,0.376821,1.428152,-0.053718,0.930332,-0.024211,0.227075,2.300982,-3.734953,0.918756,-7.250032,-5.695433,-4.101932,-0.002515,-0.096779,0.000000,-0.388105,-0.247091,-0.000000
1.390000,-1.180483,-1.250722,-1.445131,0.386238,1.427723,-0.051402,0.952978,-0.061843,0.236059,2.228176,-3.791272,0.878385,-7.302447,-5.565669,-3.968197,-0.006428,-0.099212,0.000000,-0.394472,-0.239488,-0.000000
1.400000,-1.176573,-1.236448,-1.445633,0.395878,1.426914,-0.048999,0.974894,-0.100032,0.244647,2.155101,-3.846212,0.839468,-7.304490,-5.419552,-3.811650,-0.010403,-0.101569,0.000000,-0.400650,-0.231827,-0.000000
1.410000,-1.172565,-1.222185,-1.446111,0.405734,1.425720,-0.046511,0.996069,-0.138760,0.252852,2.081177,-3.899406,0.802027,-7.232254,-5.260238,-3.630550,-0.014440,-0.103848,0.000000,-0.406601,-0.224050,0.000000
1.420000,-1.168457,-1.207935,-1.446563,0.415797,1.424137,-0.043943,1.016521,-0.178014,0.260694,2.009389,-3.951127,0.766696,-7.119018,-5.080338,-3.433365,-0.018535,-0.106050,0.000000,-0.412355,-0.216479,-0.000000
1.430000,-1.164248,-1.193703,-1.446989,0.426062,1.422158,-0.041298,1.036261,-0.217776,0.268193,1.938912,-4.000936,0.733401,-6.971119,-4.877432,-3.223752,-0.022686,-0.108178,0.000000,-0.417868,-0.209029,-0.000000
1.440000,-1.159935,-1.179493,-1.447389,0.436520,1.419780,-0.038580,1.055305,-0.258026,0.275369,1.870061,-4.048590,0.702250,-6.794893,-4.649099,-3.005369,-0.026891,-0.110233,0.000000,-0.423116,-0.201740,-0.000000
1.450000,-1.155517,-1.165309,-1.447761,0.447166,1.416996,-0.035792,1.073669,-0.298740,0.282245,1.803088,-4.093825,0.673311,-6.596675,-4.392918,-2.781874,-0.031147,-0.112215,0.000000,-0.428074,-0.194642,0.000000
1.460000,-1.150991,-1.151155,-1.448105,0.457991,1.413803,-0.032936,1.091381,-0.339899,0.288847,1.738863,-4.136889,0.646965,-6.400042,-4.092795,-2.565712,-0.035452,-0.114129,0.000000,-0.432769,-0.187833,0.000000
1.470000,-1.146357,-1.137034,-1.448419,0.468991,1.410197,-0.030016,1.108453,-0.381467,0.295192,1.675895,-4.176188,0.622385,-6.191978,-3.761657,-2.350677,-0.039802,-0.115975,0.000000,-0.437037,-0.181152,0.000000
1.480000,-1.141611,-1.122952,-1.448705,0.480158,1.406173,-0.027033,1.124906,-0.423411,0.301301,1.615047,-4.212017,0.599939,-5.976706,-3.398759,-2.139351,-0.044192,-0.117755,0.000000,-0.440910,-0.174696,-0.000000
1.490000,-1.136753,-1.108912,-1.448960,0.491487,1.401728,-0.023990,1.140761,-0.465695,0.307197,1.556371,-4.244055,0.579577,-5.758451,-3.003355,-1.934314,-0.048618,-0.119473,0.000000,-0.444358,-0.168472,-0.000000
1.500000,-1.131781,-1.094919,-1.449184,0.502972,1.396858,-0.020890,1.156040,-0.508279,0.312900,1.499874,-4.271973,0.561223,-5.541438,-2.574698,-1.738148,-0.053077,-0.121130,0.000000,-0.447347,-0.162483,0.000000
1.510000,-1.126693,-1.080977,-1.449377,0.514606,1.391561,-0.017733,1.170771,-0.551124,0.318431,1.446010,-4.295815,0.545084,-5.342183,-2.102443,-1.561224,-0.057564,-0.122729,0.000000,-0.449888,-0.156781,0.000000
1.520000,-1.121488,-1.067089,-1.449539,0.526385,1.385835,-0.014522,1.184967,-0.594179,0.323807,1.393552,-4.314338,0.530303,-5.151113,-1.596618,-1.397380,-0.062073,-0.124271,0.000000,-0.451847,-0.151230,-0.000000
1.530000,-1.116165,-1.053261,-1.449668,0.538303,1.379677,-0.011257,1.198648,-0.637393,0.329043,1.342952,-4.327637,0.517088,-4.970947,-1.057654,-1.248245,-0.066599,-0.125760,0.000000,-0.453239,-0.145882,-0.000000
1.540000,-1.110722,-1.039497,-1.449764,0.550356,1.373087,-0.007941,1.211832,-0.680713,0.334153,1.294088,-4.335382,0.505284,-4.804405,-0.485977,-1.115446,-0.071136,-0.127196,0.000000,-0.454032,-0.140722,0.000000
1.550000,-1.105157,-1.025801,-1.449826,0.562539,1.366063,-0.004575,1.224535,-0.724081,0.339153,1.246809,-4.337249,0.494719,-4.654205,0.117981,-1.000611,-0.075678,-0.128582,0.000000,-0.454192,-0.135736,-0.000000
1.560000,-1.099470,-1.012177,-1.449855,0.574845,1.358605,-0.001159,1.236779,-0.767442,0.344054,1.201522,-4.333360,0.485439,-4.537770,0.764988,-0.911263,-0.080218,-0.129920,0.000000,-0.453736,-0.130966,0.000000
1.570000,-1.093660,-0.998630,-1.449849,0.587272,1.350714,0.002306,1.248569,-0.810726,0.348864,1.156644,-4.322349,0.476688,-4.441316,1.442049,-0.842412,-0.084750,-0.131210,0.000000,-0.452520,-0.126240,-0.000000
1.580000,-1.087725,-0.985164,-1.449809,0.599815,1.342391,0.005818,1.259915,-0.853866,0.353590,1.112626,-4.304425,0.468520,-4.365761,2.147362,-0.794965,-0.089266,-0.132454,0.000000,-0.450568,-0.121606,0.000000
1.590000,-1.081663,-0.971784,-1.449733,0.612469,1.333638,0.009378,1.270824,-0.896791,0.358236,1.069256,-4.279314,0.460715,-4.312024,2.879127,-0.769828,-0.093759,-0.133652,0.000000,-0.447852,-0.117040,-0.000000
1.600000,-1.075475,-0.958493,-1.449621,0.625230,1.324456,0.012983,1.281301,-0.939427,0.362804,1.026310,-4.246760,0.453046,-4.281024,3.635545,-0.767907,-0.098221,-0.134805,0.000000,-0.444348,-0.112516,0.000000
1.610000,-1.069158,-0.945296,-1.449473,0.638094,1.314851,0.016633,1.291356,-0.981704,0.367298,0.984042,-4.206874,0.445471,-4.285956,4.423599,-0.795014,-0.102644,-0.135914,0.000000,-0.440067,-0.108060,-0.000000
1.620000,-1.062713,-0.932198,-1.449288,0.651056,1.304824,0.020328,1.300982,-1.023538,0.371712,0.941062,-4.158613,0.437283,-4.313959,5.231629,-0.846548,-0.107019,-0.136978,0.000000,-0.434900,-0.103519,0.000000
1.630000,-1.056137,-0.919201,-1.449066,0.664112,1.294381,0.024067,1.310176,-1.064849,0.376042,0.897688,-4.102185,0.428457,-4.364448,6.056761,-0.922815,-0.111339,-0.137996,0.000000,-0.428869,-0.098926,0.000000
1.640000,-1.049430,-0.906311,-1.448807,0.677258,1.283529,0.027849,1.318933,-1.105554,0.380279,0.853700,-4.037431,0.418743,-4.436841,6.896118,-1.024118,-0.115594,-0.138968,0.000000,-0.421959,-0.094254,-0.000000
1.650000,-1.042591,-0.893532,-1.448509,0.690489,1.272273,0.031672,1.327247,-1.145570,0.384413,0.808880,-3.964224,0.407890,-4.530552,7.746825,-1.150764,-0.119775,-0.139893,0.000000,-0.414155,-0.089478,0.000000
1.660000,-1.035620,-0.880867,-1.448173,0.703801,1.260620,0.035537,1.335112,-1.184813,0.388434,0.763453,-3.882740,0.395871,-4.655955,8.612929,-1.308827,-0.123874,-0.140771,0.000000,-0.405476,-0.084621,0.000000
1.670000,-1.028515,-0.868321,-1.447798,0.717190,1.248579,0.039441,1.342512,-1.223195,0.392325,0.716188,-3.792259,0.381887,-4.800166,9.483785,-1.492136,-0.127881,-0.141598,0.000000,-0.395844,-0.079543,0.000000
1.680000,-1.021276,-0.855897,-1.447384,0.730650,1.236159,0.043383,1.349431,-1.260629,0.396065,0.667394,-3.693061,0.365946,-4.961259,10.355668,-1.700290,-0.131788,-0.142374,0.000000,-0.385287,-0.074277,-0.000000
1.690000,-1.013902,-0.843599,-1.446931,0.744177,1.223370,0.047361,1.355854,-1.297028,0.399636,0.616913,-3.585155,0.347800,-5.137308,11.224855,-1.932888,-0.135584,-0.143096,0.000000,-0.373806,-0.068803,-0.000000
1.700000,-1.006392,-0.831431,-1.446437,0.757765,1.210223,0.051375,1.361763,-1.332303,0.403013,0.564604,-3.468585,0.327208,-5.326385,12.087622,-2.189527,-0.139261,-0.143762,0.000000,-0.361403,-0.063103,0.000000
1.710000,-0.998746,-0.819396,-1.445903,0.771410,1.196728,0.055421,1.367144,-1.366373,0.406175,0.510738,-3.343628,0.304265,-5.536428,12.945085,-2.478267,-0.142809,-0.144370,0.000000,-0.348108,-0.057206,0.000000
1.720000,-0.990964,-0.807497,-1.445328,0.785106,1.182900,0.059497,1.371971,-1.399148,0.409089,0.454289,-3.209948,0.277946,-5.754440,13.788090,-2.789211,-0.146220,-0.144917,0.000000,-0.333877,-0.050991,-0.000000
1.730000,-0.983044,-0.795739,-1.444713,0.798847,1.168750,0.063602,1.376222,-1.430544,0.411723,0.395634,-3.067928,0.248412,-5.977288,14.612320,-3.120922,-0.149484,-0.145400,0.000000,-0.318749,-0.044500,0.000000
1.740000,-0.974987,-0.784123,-1.444056,0.812628,1.154294,0.067731,1.379876,-1.460479,0.414045,0.334738,-2.917778,0.215463,-6.201837,15.413461,-3.471961,-0.152592,-0.145816,0.000000,-0.302745,-0.037727,0.000000
1.750000,-0.966791,-0.772654,-1.443358,0.826443,1.139545,0.071881,1.382910,-1.488873,0.416020,0.271602,-2.759751,0.178913,-6.424953,16.187196,-3.840894,-0.155536,-0.146163,0.000000,-0.285887,-0.030669,0.000000
1.760000,-0.958458,-0.761333,-1.442619,0.840284,1.124521,0.076050,1.385304,-1.515648,0.417617,0.206555,-2.594046,0.139094,-6.651101,16.926838,-4.239001,-0.158307,-0.146436,0.000000,-0.268202,-0.023365,0.000000
1.770000,-0.949986,-0.750164,-1.441837,0.854147,1.109238,0.080232,1.387033,-1.540730,0.418789,0.138948,-2.421227,0.094656,-6.868618,17.630734,-4.650569,-0.160897,-0.146635,0.000000,-0.249727,-0.015731,0.000000
1.780000,-0.941375,-0.739149,-1.441014,0.868023,1.093713,0.084424,1.388076,-1.564050,0.419496,0.069225,-2.241564,0.046048,-7.073441,18.294857,-5.072603,-0.163299,-0.146754,0.000000,-0.230497,-0.007818,0.000000
1.790000,-0.932625,-0.728291,-1.440149,0.881906,1.077963,0.088620,1.388411,-1.585540,0.419696,-0.002465,-2.055476,-0.006821,-7.261505,18.915183,-5.502108,-0.165505,-0.146792,0.000000,-0.210553,0.000357,0.000000
1.800000,-0.923737,-0.717591,-1.439241,0.895789,1.062008,0.092816,1.388021,-1.605139,0.419345,-0.075936,-1.863420,-0.064009,-7.428746,19.487686,-5.936089,-0.167508,-0.146746,0.000000,-0.189940,0.008775,0.000000
1.810000,-0.914710,-0.707051,-1.438292,0.909664,1.045867,0.097005,1.386889,-1.622794,0.418406,-0.150770,-1.666268,-0.125042,-7.575840,20.017757,-6.384327,-0.169302,-0.146614,0.000000,-0.168756,0.017383,-0.000000
1.820000,-0.905544,-0.696674,-1.437301,0.923524,1.029559,0.101182,1.385001,-1.638448,0.416829,-0.227142,-1.463675,-0.191115,-7.693403,20.490801,-6.829488,-0.170881,-0.146393,0.000000,-0.146947,0.026216,-0.000000
1.830000,-0.896239,-0.686460,-1.436269,0.937361,1.013105,0.105339,1.382343,-1.652053,0.414569,-0.304524,-1.256659,-0.261606,-7.776789,20.901640,-7.267013,-0.172239,-0.146081,0.000000,-0.124627,0.035206,-0.000000
1.840000,-0.886796,-0.676412,-1.435195,0.951168,0.996525,0.109471,1.378908,-1.663568,0.411583,-0.382549,-1.045867,-0.336415,-7.821354,21.245096,-7.692342,-0.173372,-0.145678,0.000000,-0.101865,0.044312,0.000000
1.850000,-0.877216,-0.666530,-1.434079,0.964937,0.979841,0.113569,1.374691,-1.672960,0.407827,-0.460806,-0.831999,-0.415397,-7.822454,21.515989,-8.100917,-0.174275,-0.145181,0.000000,-0.078738,0.053487,0.000000
1.860000,-0.867498,-0.656816,-1.432923,0.978660,0.963073,0.117625,1.369680,-1.680181,0.403264,-0.539990,-0.614034,-0.498174,-7.746342,21.664377,-8.492929,-0.174944,-0.144590,0.000000,-0.055152,0.062791,-0.000000
1.870000,-0.857643,-0.647269,-1.431727,0.992328,0.946244,0.121631,1.363895,-1.685237,0.397851,-0.616868,-0.396971,-0.584955,-7.621039,21.735328,-8.858487,-0.175378,-0.143906,0.000000,-0.031610,0.071892,0.000000
1.880000,-0.847651,-0.637891,-1.430491,1.005935,0.929375,0.125579,1.357348,-1.688120,0.391553,-0.692243,-0.179585,-0.675239,-7.445464,21.729145,-9.192450,-0.175576,-0.143130,0.000000,-0.008002,0.080862,0.000000
1.890000,-0.837524,-0.628682,-1.429216,1.019473,0.912488,0.129459,1.350057,-1.688830,0.384336,-0.765606,0.037356,-0.768682,-7.218534,21.646131,-9.489678,-0.175538,-0.142264,0.000000,0.015584,0.089640,0.000000
1.900000,-0.827262,-0.619641,-1.427902,1.032934,0.895606,0.133262,1.342044,-1.687377,0.376170,-0.836439,0.253083,-0.864893,-6.939171,21.486590,-9.745029,-0.175265,-0.141311,0.000000,0.039058,0.098161,-0.000000
1.910000,-0.816866,-0.610769,-1.426551,1.046312,0.878748,0.136979,1.333319,-1.683764,0.367022,-0.905969,0.467856,-0.964149,-6.561901,21.225001,-9.935109,-0.174756,-0.140270,0.000000,0.062442,0.106552,0.000000
1.920000,-0.806336,-0.602066,-1.425163,1.059599,0.861937,0.140600,1.323938,-1.678029,0.356881,-0.969495,0.678493,-1.064243,-6.135470,20.890652,-10.075266,-0.174017,-0.139148,0.000000,0.085376,0.114297,0.000000
1.930000,-0.795674,-0.593530,-1.423739,1.072788,0.845194,0.144114,1.313944,-1.670206,0.345734,-1.028529,0.885438,-1.165478,-5.664232,20.487010,-10.162595,-0.173050,-0.137950,0.000000,0.107901,0.121550,0.000000
1.940000,-0.784881,-0.585162,-1.422281,1.085876,0.828540,0.147511,1.303384,-1.660335,0.333570,-1.082644,1.088014,-1.267309,-5.152541,20.017538,-10.194190,-0.171861,-0.136682,0.000000,0.129932,0.128259,-0.000000
1.950000,-0.773957,-0.576959,-1.420789,1.098854,0.811994,0.150782,1.292309,-1.648463,0.320387,-1.131459,1.285581,-1.369166,-4.604751,19.485703,-10.167146,-0.170453,-0.135349,0.000000,0.151386,0.134375,0.000000
1.960000,-0.762904,-0.568922,-1.419266,1.111720,0.795577,0.153916,1.280766,-1.634639,0.306180,-1.175346,1.477818,-1.471269,-4.007216,18.887750,-10.057796,-0.168835,-0.133956,0.000000,0.172227,0.139937,-0.000000
1.970000,-0.751723,-0.561047,-1.417712,1.124469,0.779308,0.156902,1.268822,-1.618927,0.290967,-1.212323,1.663476,-1.571042,-3.384495,18.235248,-9.886538,-0.167011,-0.132512,0.000000,0.192282,0.144708,-0.000000
1.980000,-0.740415,-0.553335,-1.416128,1.137096,0.763204,0.159732,1.256541,-1.601392,0.274765,-1.242974,1.842355,-1.668792,-2.743146,17.532546,-9.653008,-0.164992,-0.131024,0.000000,0.211527,0.148752,-0.000000
1.990000,-0.728982,-0.545783,-1.414518,1.149599,0.747286,0.162394,1.243985,-1.582104,0.257600,-1.267146,2.013974,-1.763894,-2.089728,16.783994,-9.356843,-0.162784,-0.129499,0.000000,0.229899,0.152049,0.000000
2.000000,-0.717424,-0.538388,-1.412881,1.161975,0.731568,0.164880,1.231220,-1.561139,0.239499,-1.284750,2.177897,-1.855719,-1.430798,15.993940,-8.997679,-0.160397,-0.127945,0.000000,0.247340,0.154584,-0.000000
2.010000,-0.705743,-0.531150,-1.411221,1.174222,0.716068,0.167181,1.218314,-1.538566,0.220493,-1.295510,2.334405,-1.944146,-0.779375,15.149656,-8.562286,-0.157839,-0.126370,0.000000,0.263875,0.156331,0.000000
2.020000,-0.693940,-0.524066,-1.409538,1.186341,0.700801,0.169288,1.205331,-1.514479,0.200631,-1.300072,2.481550,-2.027332,-0.134766,14.274661,-8.064743,-0.155123,-0.124781,0.000000,0.279274,0.157338,-0.000000
2.030000,-0.682016,-0.517134,-1.407835,1.198329,0.685783,0.171191,1.192334,-1.488965,0.179964,-1.298247,2.619818,-2.105237,0.497261,13.375395,-7.506262,-0.152257,-0.123187,0.000000,0.293588,0.157591,-0.000000
2.040000,-0.669974,-0.510350,-1.406115,1.210187,0.671027,0.172884,1.179387,-1.462113,0.158546,-1.290188,2.748998,-2.177258,1.110939,12.458299,-6.888057,-0.149255,-0.121595,0.000000,0.306790,0.157106,0.000000
2.050000,-0.657813,-0.503712,-1.404378,1.221917,0.656545,0.174360,1.166550,-1.434016,0.136440,-1.276108,2.868946,-2.242804,1.700500,11.529813,-6.211339,-0.146125,-0.120012,0.000000,0.318862,0.155905,-0.000000
2.060000,-0.645536,-0.497218,-1.402628,1.233519,0.642350,0.175611,1.153892,-1.404776,0.113706,-1.255557,2.978567,-2.302000,2.241964,10.621930,-5.459496,-0.142882,-0.118446,0.000000,0.329702,0.153953,0.000000
2.070000,-0.633143,-0.490864,-1.400867,1.244995,0.628453,0.176632,1.141457,-1.374475,0.090426,-1.230567,3.080238,-2.352609,2.750007,9.712410,-4.653747,-0.139535,-0.116903,0.000000,0.339523,0.151438,0.000000
2.080000,-0.620636,-0.484648,-1.399097,1.256349,0.614864,0.177418,1.129297,-1.343202,0.066681,-1.200680,3.172820,-2.394906,3.221091,8.804565,-3.797487,-0.136095,-0.115390,0.000000,0.348229,0.148325,0.000000
2.090000,-0.608016,-0.478566,-1.397319,1.267582,0.601592,0.177965,1.117458,-1.311048,0.042557,-1.166281,3.256346,-2.428402,3.651680,7.901706,-2.894111,-0.132574,-0.113911,0.000000,0.355828,0.144658,0.000000
2.100000,-0.595285,-0.472615,-1.395538,1.278699,0.588646,0.178268,1.105985,-1.278105,0.018144,-1.127793,3.330882,-2.452643,4.038236,7.007146,-1.947013,-0.128983,-0.112473,0.000000,0.362336,0.140484,-0.000000
2.110000,-0.582443,-0.466792,-1.393755,1.289703,0.576033,0.178327,1.094921,-1.244465,-0.006469,-1.085090,3.396096,-2.467762,4.362471,6.135090,-0.945601,-0.125331,-0.111080,0.000000,0.367739,0.135801,0.000000
2.120000,-0.569491,-0.461093,-1.391972,1.300599,0.563759,0.178139,1.084293,-1.210212,-0.031177,-1.040049,3.453143,-2.472062,4.637405,5.276622,0.091031,-0.121631,-0.109737,0.000000,0.372147,0.130787,-0.000000
2.130000,-0.556431,-0.455515,-1.390193,1.311391,0.551830,0.177704,1.074128,-1.175431,-0.055876,-0.992512,3.501681,-2.465841,4.861307,4.433719,1.157775,-0.117892,-0.108446,0.000000,0.375549,0.125438,0.000000
2.140000,-0.543264,-0.450055,-1.388419,1.322083,0.540252,0.177022,1.064449,-1.140206,-0.080458,-0.942999,3.541876,-2.448823,5.032446,3.608361,2.249522,-0.114123,-0.107211,0.000000,0.377980,0.119810,0.000000
2.150000,-0.529990,-0.444709,-1.386653,1.332681,0.529027,0.176095,1.055273,-1.104620,-0.104815,-0.892045,3.573913,-2.420784,5.149090,2.802525,3.361167,-0.110335,-0.106035,0.000000,0.379477,0.113962,-0.000000
2.160000,-0.516610,-0.439474,-1.384898,1.343190,0.518160,0.174927,1.046617,-1.068761,-0.128840,-0.839649,3.597401,-2.381904,5.195484,2.033273,4.496529,-0.106537,-0.104919,0.000000,0.380025,0.107900,0.000000
2.170000,-0.503126,-0.434345,-1.383156,1.353615,0.507653,0.173520,1.038481,-1.032697,-0.152415,-0.787697,3.613977,-2.331223,5.185639,1.285651,5.640479,-0.102738,-0.103865,0.000000,0.379795,0.101807,0.000000
2.180000,-0.489538,-0.429319,-1.381428,1.363961,0.497507,0.171880,1.030862,-0.996506,-0.175426,-0.736124,3.623186,-2.269086,5.119542,0.559791,6.786817,-0.098944,-0.102872,0.000000,0.378769,0.095684,-0.000000
2.190000,-0.475847,-0.424393,-1.379719,1.374234,0.487723,0.170014,1.023755,-0.960258,-0.197759,-0.685494,3.625246,-2.195500,4.997177,-0.144176,7.929340,-0.095165,-0.101942,0.000000,0.376990,0.089589,0.000000
2.200000,-0.462054,-0.419564,-1.378029,1.384438,0.478302,0.167928,1.017147,-0.924024,-0.219298,-0.636368,3.620376,-2.110533,4.818533,-0.826119,9.061850,-0.091407,-0.101072,0.000000,0.374500,0.083579,-0.000000
2.210000,-0.448159,-0.414826,-1.376361,1.394579,0.469242,0.165631,1.011026,-0.887877,-0.239933,-0.588852,3.608361,-2.014403,4.572024,-1.474891,10.180317,-0.087678,-0.100263,0.000000,0.371301,0.077668,-0.000000
2.220000,-0.434163,-0.410178,-1.374717,1.404660,0.460544,0.163133,1.005361,-0.851878,-0.259550,-0.544594,3.590456,-1.907099,4.270625,-2.102726,11.276102,-0.083983,-0.099512,0.000000,0.367533,0.072017,-0.000000
2.230000,-0.420066,-0.405614,-1.373099,1.414687,0.452204,0.160444,1.000123,-0.816089,-0.278039,-0.503618,3.566373,-1.788978,3.915738,-2.710842,12.342737,-0.080329,-0.098817,0.000000,0.363189,0.066631,0.000000
2.240000,-0.405869,-0.401132,-1.371509,1.424664,0.444221,0.157576,0.995276,-0.780570,-0.295294,-0.466453,3.536301,-1.660363,3.508766,-3.300458,13.373756,-0.076721,-0.098174,0.000000,0.358306,0.061561,-0.000000
2.250000,-0.391573,-0.396729,-1.369948,1.434594,0.436592,0.154542,0.990779,-0.745382,-0.311212,-0.433612,3.500421,-1.521643,3.051112,-3.872790,14.362691,-0.073164,-0.097580,0.000000,0.352919,0.056860,0.000000
2.260000,-0.377177,-0.392399,-1.368418,1.444480,0.429312,0.151356,0.986591,-0.710582,-0.325693,-0.405236,3.458746,-1.373102,2.535125,-4.425191,15.298807,-0.069664,-0.097033,0.000000,0.347044,0.052541,0.000000
2.270000,-0.362683,-0.388141,-1.366921,1.454326,0.422379,0.148033,0.982657,-0.676225,-0.338644,-0.382661,3.411793,-1.215658,1.972371,-4.963219,16.180429,-0.066225,-0.096525,0.000000,0.340749,0.048739,0.000000
2.280000,-0.348091,-0.383951,-1.365458,1.464134,0.415786,0.144589,0.978919,-0.642364,-0.349978,-0.365937,3.359524,-1.049695,1.365362,-5.488564,17.001611,-0.062851,-0.096054,0.000000,0.334041,0.045459,0.000000
2.290000,-0.333401,-0.379824,-1.364030,1.473905,0.409529,0.141040,0.975317,-0.609052,-0.359612,-0.355493,3.302058,-0.875847,0.716609,-6.002918,17.756410,-0.059545,-0.095613,0.000000,0.326943,0.042746,0.000000
2.300000,-0.318613,-0.375759,-1.362638,1.483641,0.403603,0.137403,0.971787,-0.576340,-0.367471,-0.351735,3.239496,-0.694808,0.028624,-6.507972,18.438881,-0.056313,-0.095195,0.000000,0.319474,0.040643,0.000000
2.310000,-0.303728,-0.371751,-1.361282,1.493341,0.398000,0.133696,0.968262,-0.544277,-0.373482,-0.354738,3.172098,-0.506924,-0.703782,-7.009817,19.032802,-0.053157,-0.094797,0.000000,0.311664,0.039158,-0.000000
2.320000,-0.288746,-0.367798,-1.359964,1.503006,0.392715,0.129939,0.964667,-0.512915,-0.377591,-0.365578,3.099518,-0.313970,-1.469454,-7.505206,19.543766,-0.050081,-0.094409,0.000000,0.303489,0.038410,0.000000
2.330000,-0.273668,-0.363896,-1.358683,1.512634,0.387740,0.126151,0.960924,-0.482303,-0.379746,-0.384226,3.022012,-0.116340,-2.264936,-7.995292,19.967086,-0.047088,-0.094025,0.000000,0.294976,0.038399,-0.000000
2.340000,-0.258494,-0.360042,-1.357441,1.522223,0.383066,0.122351,0.956955,-0.452491,-0.379905,-0.410964,2.939626,0.085064,-3.086774,-8.481227,20.298077,-0.044182,-0.093637,0.000000,0.286129,0.039163,-0.000000
2.350000,-0.243224,-0.356234,-1.356236,1.531772,0.378687,0.118559,0.952677,-0.423527,-0.378035,-0.446038,2.852397,0.289298,-3.931513,-8.964165,20.532053,-0.041367,-0.093238,0.000000,0.276952,0.040734,0.000000
2.360000,-0.227858,-0.352467,-1.355070,1.541276,0.374593,0.114797,0.948009,-0.395454,-0.374106,-0.489362,2.760789,0.496020,-4.803212,-9.456374,20.647811,-0.038644,-0.092820,0.000000,0.267483,0.043112,-0.000000
2.370000,-0.212398,-0.348741,-1.353940,1.550730,0.370775,0.111084,0.942861,-0.368327,-0.368113,-0.541817,2.663773,0.702643,-5.689981,-9.946530,20.659205,-0.036018,-0.092372,0.000000,0.257623,0.046410,0.000000
2.380000,-0.196844,-0.345051,-1.352848,1.560131,0.367223,0.107441,0.937143,-0.342195,-0.360054,-0.603197,2.561866,0.908848,-6.587448,-10.434423,20.563571,-0.033493,-0.091888,0.000000,0.247412,0.050618,0.000000
2.390000,-0.181196,-0.341395,-1.351791,1.569471,0.363927,0.103890,0.930767,-0.317106,-0.349941,-0.673587,2.455093,1.113549,-7.491238,-10.919845,20.358247,-0.031071,-0.091356,0.000000,0.236842,0.055762,0.000000
2.400000,-0.165455,-0.337772,-1.350769,1.578744,0.360877,0.100449,0.923641,-0.293109,-0.337792,-0.753029,2.343478,1.315638,-8.396974,-11.402586,20.040568,-0.028757,-0.090769,0.000000,0.225906,0.061867,0.000000
2.410000,-0.149621,-0.334177,-1.349782,1.587941,0.358061,0.097140,0.915679,-0.270246,-0.323630,-0.841244,2.227624,1.514898,-9.307212,-11.896929,19.584621,-0.026554,-0.090116,0.000000,0.214646,0.068920,0.000000
2.420000,-0.133696,-0.330610,-1.348826,1.597054,0.355468,0.093983,0.906786,-0.248573,-0.307511,-0.938838,2.106203,1.707986,-10.209800,-12.386400,19.013840,-0.024466,-0.089387,0.000000,0.202921,0.077021,-0.000000
2.430000,-0.117680,-0.327067,-1.347901,1.606073,0.353085,0.090996,0.896872,-0.228139,-0.289492,-1.045398,1.979919,1.894792,-11.099514,-12.869016,18.328409,-0.022497,-0.088571,0.000000,0.190783,0.086148,0.000000
2.440000,-0.101575,-0.323547,-1.347006,1.614988,0.350901,0.088199,0.885849,-0.208991,-0.269640,-1.160768,1.848852,2.074172,-11.971133,-13.342794,17.528510,-0.020651,-0.087660,0.000000,0.178219,0.096310,-0.000000
2.450000,-0.085381,-0.320048,-1.346137,1.623786,0.348901,0.085610,0.873628,-0.191177,-0.248037,-1.284742,1.713099,2.244982,-12.819432,-13.805749,16.614327,-0.018934,-0.086641,0.000000,0.165220,0.107515,0.000000
2.460000,-0.069100,-0.316569,-1.345293,1.632456,0.347073,0.083244,0.860128,-0.174738,-0.224760,-1.416914,1.573287,2.407247,-13.642913,-14.268729,15.556529,-0.017348,-0.085506,0.000000,0.151825,0.119740,-0.000000
2.470000,-0.052732,-0.313106,-1.344471,1.640984,0.345401,0.081119,0.845263,-0.159727,-0.199929,-1.557320,1.428352,2.557062,-14.432172,-14.715351,14.388427,-0.015899,-0.084243,0.000000,0.137912,0.133041,0.000000
2.480000,-0.036281,-0.309660,-1.343669,1.649357,0.343873,0.079250,0.828956,-0.146186,-0.173660,-1.705425,1.279047,2.694661,-15.181532,-15.142059,13.113821,-0.014591,-0.082841,0.000000,0.123531,0.147379,0.000000
2.490000,-0.019746,-0.306229,-1.342885,1.657558,0.342473,0.077650,0.811130,-0.134159,-0.146080,-1.860799,1.125589,2.818996,-15.885312,-15.545299,11.736507,-0.013430,-0.081291,0.000000,0.108682,0.162738,-0.000000
2.500000,-0.003130,-0.302810,-1.342115,1.665574,0.341185,0.076332,0.791717,-0.123687,-0.117327,-2.022960,0.968231,2.929061,-16.537833,-15.921518,10.260283,-0.012419,-0.079583,0.000000,0.093367,0.179093,0.000000
2.510000,0.013565,-0.299405,-1.341357,1.673387,0.339994,0.075307,0.770649,-0.114804,-0.087535,-2.191513,0.807486,3.025186,-17.129714,-16.272848,8.656090,-0.011564,-0.077706,0.000000,0.077616,0.196417,0.000000
2.520000,0.030337,-0.296010,-1.340608,1.680981,0.338883,0.074584,0.747868,-0.107549,-0.056879,-2.365512,0.643144,3.103359,-17.659432,-16.589352,6.964606,-0.010868,-0.075651,0.000000,0.061393,0.214657,0.000000
2.530000,0.047184,-0.292627,-1.339865,1.688339,0.337837,0.074172,0.723322,-0.101951,-0.025526,-2.544477,0.475829,3.164213,-18.121762,-16.866780,5.193651,-0.010337,-0.073410,0.000000,0.044740,0.233766,0.000000
2.540000,0.064103,-0.289253,-1.339124,1.695442,0.336839,0.074075,0.696964,-0.098041,0.006345,-2.727705,0.305953,3.206993,-18.511478,-17.100880,3.351048,-0.009975,-0.070973,0.000000,0.027684,0.253683,0.000000
2.550000,0.081092,-0.285890,-1.338382,1.702272,0.335871,0.074300,0.668756,-0.095839,0.038551,-2.914447,0.133970,3.231021,-18.823355,-17.287403,1.444617,-0.009785,-0.068333,0.000000,0.010258,0.274333,0.000000
2.560000,0.098147,-0.282536,-1.337637,1.708811,0.334916,0.074846,0.638660,-0.095369,0.070914,-3.104497,-0.039835,3.236874,-19.036985,-17.416737,-0.547499,-0.009771,-0.065483,0.000000,-0.007518,0.295686,0.000000
2.570000,0.115267,-0.279191,-1.336884,1.715039,0.333957,0.075717,0.606661,-0.096640,0.103222,-3.295576,-0.214420,3.221248,-19.164184,-17.490649,-2.584168,-0.009936,-0.062417,0.000000,-0.025539,0.317516,0.000000
2.580000,0.132447,-0.275857,-1.336121,1.720937,0.332977,0.076910,0.572746,-0.099659,0.135271,-3.487481,-0.389451,3.185080,-19.201585,-17.505546,-4.653932,-0.010283,-0.059131,0.000000,-0.043772,0.339775,-0.000000
2.590000,0.149685,-0.272532,-1.335345,1.726487,0.331958,0.078421,0.536911,-0.104428,0.166854,-3.679297,-0.564322,3.128097,-19.145821,-17.457833,-6.745338,-0.010812,-0.055621,0.000000,-0.062148,0.362340,0.000000
2.600000,0.166976,-0.269218,-1.334552,1.731669,0.330883,0.080245,0.499163,-0.110943,0.197763,-3.870076,-0.738387,3.050139,-18.993525,-17.343917,-8.846929,-0.011526,-0.051883,0.000000,-0.080591,0.385077,-0.000000
2.610000,0.184317,-0.265915,-1.333739,1.736465,0.329734,0.082373,0.459504,-0.119198,0.227794,-4.059943,-0.911661,2.951826,-18.713349,-17.142687,-10.964013,-0.012425,-0.047917,0.000000,-0.099087,0.407954,-0.000000
2.620000,0.201704,-0.262623,-1.332903,1.740853,0.328494,0.084797,0.417975,-0.129168,0.256729,-4.245259,-1.081785,2.831656,-18.333334,-16.870210,-13.066319,-0.013507,-0.043724,0.000000,-0.117366,0.430546,0.000000
2.630000,0.219132,-0.259345,-1.332042,1.744818,0.327145,0.087503,0.374614,-0.140824,0.284357,-4.426277,-1.248823,2.690594,-17.853540,-16.525038,-15.140341,-0.014771,-0.039307,0.000000,-0.135406,0.452812,0.000000
2.640000,0.236598,-0.256081,-1.331152,1.748340,0.325672,0.090479,0.329467,-0.154132,0.310472,-4.601998,-1.412039,2.528989,-17.274027,-16.105722,-17.172571,-0.016214,-0.034669,0.000000,-0.153097,0.474578,-0.000000
2.650000,0.254098,-0.252832,-1.330232,1.751402,0.324057,0.093707,0.282595,-0.169049,0.334870,-4.771425,-1.570685,2.347327,-16.594854,-15.610812,-19.149500,-0.017832,-0.029816,0.000000,-0.170323,0.495665,0.000000
2.660000,0.271625,-0.249600,-1.329278,1.753987,0.322286,0.097170,0.234047,-0.185539,0.357351,-4.935021,-1.725046,2.145986,-15.779238,-15.012406,-21.051512,-0.019620,-0.024755,0.000000,-0.187071,0.516041,-0.000000
2.670000,0.289176,-0.246387,-1.328288,1.756078,0.320342,0.100847,0.183923,-0.203529,0.377728,-5.088338,-1.871864,1.926296,-14.868593,-14.338749,-22.871957,-0.021570,-0.019497,0.000000,-0.202952,0.535150,0.000000
2.680000,0.306745,-0.243194,-1.327260,1.757660,0.318210,0.104717,0.132313,-0.222952,0.395818,-5.232092,-2.011576,1.688862,-13.867491,-13.591630,-24.598075,-0.023676,-0.014054,0.000000,-0.217964,0.552981,0.000000
2.690000,0.324327,-0.240024,-1.326193,1.758719,0.315878,0.108755,0.079316,-0.243734,0.411449,-5.365401,-2.143457,1.434691,-12.780502,-12.772839,-26.217107,-0.025926,-0.008439,0.000000,-0.231982,0.569355,-0.000000
2.700000,0.341917,-0.236877,-1.325084,1.759242,0.313331,0.112937,0.025042,-0.265793,0.424460,-5.487431,-2.266800,1.164919,-11.612199,-11.884168,-27.716294,-0.028312,-0.002668,0.000000,-0.244882,0.584099,0.000000
2.710000,0.359510,-0.233758,-1.323934,1.759217,0.310559,0.117236,-0.030407,-0.289052,0.434686,-5.598737,-2.382014,0.879512,-10.333115,-10.899620,-29.050164,-0.030821,0.003243,0.000000,-0.256660,0.597193,0.000000
2.720000,0.377100,-0.230667,-1.322739,1.758631,0.307547,0.121622,-0.086889,-0.313400,0.442008,-5.695386,-2.485823,0.582927,-8.986026,-9.852175,-30.242675,-0.033440,0.009275,0.000000,-0.266935,0.608147,0.000000
2.730000,0.394681,-0.227608,-1.321501,1.757476,0.304287,0.126066,-0.144269,-0.338732,0.446307,-5.778260,-2.578865,0.275159,-7.579671,-8.747024,-31.285073,-0.036155,0.015406,0.000000,-0.275736,0.616995,-0.000000
2.740000,0.412247,-0.224582,-1.320218,1.755743,0.300770,0.130537,-0.202406,-0.364939,0.447479,-5.846811,-2.660588,-0.042245,-6.122790,-7.589361,-32.168607,-0.038950,0.021615,0.000000,-0.282977,0.623628,-0.000000
2.750000,0.429794,-0.221593,-1.318890,1.753426,0.296986,0.135005,-0.261156,-0.391905,0.445435,-5.900576,-2.730494,-0.367654,-4.624120,-6.384377,-32.884520,-0.041809,0.027880,0.000000,-0.288583,0.627963,-0.000000
2.760000,0.447314,-0.218643,-1.317518,1.750519,0.292930,0.139436,-0.320374,-0.419516,0.440083,-5.939800,-2.788901,-0.701400,-3.076819,-5.117934,-33.372234,-0.044717,0.034178,0.000000,-0.292570,0.629995,-0.000000
2.770000,0.464802,-0.215735,-1.316102,1.747018,0.288594,0.143796,-0.379900,-0.447640,0.431394,-5.962734,-2.833601,-1.036817,-1.507116,-3.816924,-33.681167,-0.047655,0.040485,0.000000,-0.294727,0.629553,0.000000
2.780000,0.482252,-0.212872,-1.314642,1.742920,0.283976,0.148052,-0.439576,-0.476145,0.419339,-5.969903,-2.865149,-1.374419,0.074342,-2.488906,-33.808912,-0.050605,0.046776,0.000000,-0.295115,0.626698,0.000000
2.790000,0.499659,-0.210057,-1.313141,1.738226,0.279070,0.152171,-0.499245,-0.504898,0.403905,-5.961243,-2.883314,-1.712383,1.656907,-1.141441,-33.753062,-0.053551,0.053027,0.000000,-0.293733,0.621456,-0.000000
2.800000,0.517015,-0.207292,-1.311600,1.732936,0.273877,0.156119,-0.558748,-0.533766,0.385096,-5.936797,-2.887939,-2.048860,3.229932,0.217912,-33.511208,-0.056474,0.059215,0.000000,-0.290599,0.613876,0.000000
2.810000,0.534315,-0.204580,-1.310019,1.727052,0.268395,0.159863,-0.617924,-0.562613,0.362914,-5.896290,-2.879078,-2.384203,4.772100,1.585037,-33.024763,-0.059357,0.065316,0.000000,-0.285750,0.603977,0.000000
2.820000,0.551554,-0.201925,-1.308403,1.720579,0.262626,0.163367,-0.676623,-0.591302,0.337432,-5.840977,-2.856404,-2.711251,6.284740,2.948509,-32.354380,-0.062184,0.071309,0.000000,-0.279237,0.592003,-0.000000
2.830000,0.568725,-0.199329,-1.306753,1.713522,0.256570,0.166601,-0.734694,-0.619696,0.308715,-5.770724,-2.820147,-3.030693,7.758512,4.300344,-31.504528,-0.064937,0.077172,0.000000,-0.271132,0.578013,-0.000000
2.840000,0.585822,-0.196794,-1.305072,1.705888,0.250233,0.169531,-0.791989,-0.647660,0.276849,-5.685967,-2.770462,-3.340758,9.184074,5.632562,-30.479680,-0.067601,0.082887,0.000000,-0.261522,0.562153,0.000000
2.850000,0.602841,-0.194325,-1.303363,1.697685,0.243619,0.172127,-0.848367,-0.675061,0.241937,-5.587235,-2.707587,-3.639718,10.552086,6.937180,-29.284308,-0.070162,0.088435,0.000000,-0.250503,0.544582,0.000000
2.860000,0.619774,-0.191923,-1.301631,1.688923,0.236734,0.174361,-0.903676,-0.701763,0.204077,-5.473877,-2.631285,-3.927707,11.821088,8.192272,-27.876988,-0.072606,0.093799,0.000000,-0.238116,0.525329,0.000000
2.870000,0.636617,-0.189591,-1.299878,1.679615,0.229586,0.176200,-0.957803,-0.727646,0.163432,-5.349620,-2.543259,-4.198787,13.017792,9.405507,-26.313706,-0.074921,0.098965,0.000000,-0.224643,0.504933,-0.000000
2.880000,0.653365,-0.187332,-1.298108,1.669772,0.222184,0.177620,-1.010629,-0.752588,0.120156,-5.213780,-2.443335,-4.453495,14.136789,10.570614,-24.604554,-0.077096,0.103922,0.000000,-0.210130,0.483416,0.000000
2.890000,0.670011,-0.185148,-1.296327,1.659407,0.214538,0.178595,-1.062043,-0.776474,0.074421,-5.067161,-2.332028,-4.690425,15.172673,11.681316,-22.759621,-0.079120,0.108659,0.000000,-0.194702,0.460972,-0.000000
2.900000,0.686551,-0.183042,-1.294538,1.648536,0.206659,0.179101,-1.111940,-0.799193,0.026411,-4.910622,-2.209911,-4.908269,16.120035,12.731340,-20.789001,-0.080987,0.113168,0.000000,-0.178488,0.437793,0.000000
2.910000,0.702980,-0.181016,-1.292746,1.637173,0.198558,0.179117,-1.160207,-0.820627,-0.023687,-4.743426,-2.076559,-5.106816,16.931843,13.687515,-18.677628,-0.082687,0.117440,0.000000,-0.161504,0.413894,-0.000000
2.920000,0.719293,-0.179072,-1.290957,1.625337,0.190250,0.178622,-1.206783,-0.840693,-0.075653,-4.570441,-1.935193,-5.282603,17.649411,14.573757,-16.463829,-0.084215,0.121473,0.000000,-0.144147,0.389880,-0.000000
2.930000,0.735485,-0.177211,-1.289176,1.613043,0.181749,0.177598,-1.251594,-0.859303,-0.129264,-4.390753,-1.785327,-5.435795,18.272429,15.387085,-14.160776,-0.085568,0.125265,0.000000,-0.126409,0.365727,0.000000
2.940000,0.751553,-0.175437,-1.287407,1.600311,0.173069,0.176032,-1.294578,-0.876374,-0.184291,-4.205308,-1.627705,-5.565565,18.800585,16.124520,-11.781640,-0.086743,0.128815,0.000000,-0.108406,0.341596,-0.000000
2.950000,0.767490,-0.173751,-1.285657,1.587158,0.164227,0.173909,-1.335684,-0.891833,-0.240495,-4.015058,-1.463100,-5.671218,19.233568,16.783080,-9.339592,-0.087736,0.132123,0.000000,-0.090246,0.317640,0.000000
2.960000,0.783294,-0.172153,-1.283931,1.573603,0.155238,0.171219,-1.374850,-0.905602,-0.297634,-3.819442,-1.291120,-5.752309,19.532853,17.329581,-6.844807,-0.088546,0.135191,0.000000,-0.071918,0.293853,-0.000000
2.970000,0.798961,-0.170646,-1.282234,1.559667,0.146120,0.167954,-1.412064,-0.917639,-0.355457,-3.622999,-1.115430,-5.808127,19.741023,17.794944,-4.313821,-0.089175,0.138025,0.000000,-0.053792,0.270712,0.000000
2.980000,0.814486,-0.169231,-1.280574,1.545369,0.136891,0.164108,-1.447305,-0.927897,-0.413712,-3.424911,-0.935489,-5.838510,19.862449,18.179888,-1.760171,-0.089623,0.140629,0.000000,-0.035821,0.248160,0.000000
2.990000,0.829867,-0.167909,-1.278954,1.530728,0.127568,0.159679,-1.480560,-0.936337,-0.472142,-3.226024,-0.752098,-5.843300,19.901497,18.485131,0.802605,-0.089892,0.143010,0.000000,-0.018080,0.226291,0.000000
3.000000,0.845100,-0.166680,-1.277382,1.515764,0.118170,0.154666,-1.511825,-0.942930,-0.530492,-3.027141,-0.566050,-5.822473,19.862539,18.711389,3.360969,-0.089985,0.145176,0.000000,-0.000637,0.205185,-0.000000
3.010000,0.860181,-0.165546,-1.275863,1.500497,0.108716,0.149070,-1.541095,-0.947642,-0.588498,-2.828037,-0.377168,-5.775326,19.725137,18.835053,5.880800,-0.089905,0.147133,0.000000,0.016534,0.184828,0.000000
3.020000,0.875109,-0.164506,-1.274402,1.484948,0.099224,0.142897,-1.568392,-0.950470,-0.645915,-2.631752,-0.188511,-5.704035,19.521503,18.884147,8.371662,-0.089656,0.148890,0.000000,0.033184,0.165465,0.000000
3.030000,0.889880,-0.163561,-1.273007,1.469136,0.089713,0.136154,-1.593737,-0.951411,-0.702496,-2.437803,0.000279,-5.608026,19.259043,18.862369,10.822538,-0.089243,0.150458,0.000000,0.049368,0.147040,0.000000
3.040000,0.904491,-0.162712,-1.271681,1.453080,0.080202,0.128851,-1.617158,-0.950467,-0.757995,-2.246742,0.188512,-5.487754,18.945162,18.773414,13.222409,-0.088670,0.151846,0.000000,0.065054,0.129579,0.000000
3.050000,0.918940,-0.161957,-1.270432,1.436799,0.070710,0.120999,-1.638683,-0.947645,-0.812172,-2.059046,0.375535,-5.343784,18.587267,18.620981,15.560257,-0.087943,0.153063,0.000000,0.080218,0.113094,-0.000000
3.060000,0.933226,-0.161297,-1.269263,1.420312,0.061255,0.112612,-1.658348,-0.942956,-0.864783,-1.874867,0.561332,-5.175799,18.186396,18.393624,17.799975,-0.087067,0.154120,0.000000,0.094889,0.097576,-0.000000
3.070000,0.947346,-0.160732,-1.268181,1.403638,0.051856,0.103709,-1.676195,-0.936427,-0.915615,-1.695129,0.743903,-4.986935,17.757104,18.112035,19.958707,-0.086048,0.155026,0.000000,0.108946,0.083038,-0.000000
3.080000,0.961298,-0.160260,-1.267191,1.386794,0.042532,0.094307,-1.692266,-0.928088,-0.964451,-1.519792,0.923410,-4.776921,17.307574,17.781765,22.028506,-0.084890,0.155790,0.000000,0.122438,0.069450,-0.000000
3.090000,0.975081,-0.159881,-1.266296,1.369799,0.033301,0.084427,-1.706606,-0.917971,-1.011086,-1.349018,1.099394,-4.546688,16.845995,17.408365,24.001426,-0.083601,0.156423,0.000000,0.135368,0.056784,0.000000
3.100000,0.988694,-0.159594,-1.265503,1.352668,0.024179,0.074093,-1.719261,-0.906113,-1.055321,-1.182885,1.271452,-4.297242,16.380550,16.997385,25.869522,-0.082185,0.156933,0.000000,0.147745,0.045003,0.000000
3.110000,1.002134,-0.159397,-1.264816,1.335419,0.015184,0.063329,-1.730287,-0.892556,-1.096959,-1.022123,1.439170,-4.028666,15.937870,16.556041,27.599401,-0.080648,0.157330,0.000000,0.159570,0.034143,0.000000
3.120000,1.015402,-0.159289,-1.264238,1.318068,0.006333,0.052163,-1.739718,-0.877345,-1.135838,-0.864917,1.602410,-3.744510,15.505438,16.088015,29.211680,-0.078995,0.157620,0.000000,0.170891,0.023964,0.000000
3.130000,1.028495,-0.159270,-1.263774,1.300630,-0.002358,0.040622,-1.747599,-0.860524,-1.171798,-0.711960,1.760859,-3.444840,15.089182,15.598653,30.701528,-0.077231,0.157813,0.000000,0.181717,0.014500,0.000000
3.140000,1.041414,-0.159336,-1.263427,1.283121,-0.010872,0.028737,-1.753971,-0.842144,-1.204688,-0.563060,1.914330,-3.130904,14.695029,15.093303,32.064115,-0.075362,0.157913,0.000000,0.192071,0.005695,-0.000000
3.150000,1.054158,-0.159486,-1.263200,1.265555,-0.019195,0.016539,-1.758873,-0.822255,-1.234372,-0.417966,2.062689,-2.803998,14.328908,14.577311,33.294610,-0.073392,0.157929,0.000000,0.201985,-0.002517,-0.000000
3.160000,1.066725,-0.159719,-1.263097,1.247949,-0.027312,0.004060,-1.762358,-0.800908,-1.260721,-0.277814,2.205868,-2.464713,14.033253,14.055786,34.369125,-0.071324,0.157866,0.000000,0.211486,-0.010065,-0.000000
3.170000,1.079117,-0.160032,-1.263120,1.230313,-0.035209,-0.008664,-1.764439,-0.778155,-1.283633,-0.138813,2.343816,-2.116229,13.773013,13.534342,35.304222,-0.069163,0.157729,0.000000,0.220618,-0.017346,-0.000000
3.180000,1.091331,-0.160423,-1.263271,1.212664,-0.042871,-0.021600,-1.765142,-0.754049,-1.303017,-0.002231,2.476573,-1.759102,13.549646,13.018355,36.097406,-0.066913,0.157520,0.000000,0.229413,-0.024273,-0.000000
3.190000,1.103370,-0.160889,-1.263553,1.195015,-0.050286,-0.034713,-1.764490,-0.728640,-1.318791,0.132308,2.604219,-1.394763,13.364607,12.513202,36.746179,-0.064576,0.157243,0.000000,0.237912,-0.030917,0.000000
3.200000,1.115232,-0.161427,-1.263966,1.177379,-0.057440,-0.047964,-1.762501,-0.701981,-1.330893,0.265194,2.726891,-1.024668,13.219355,12.024259,37.248047,-0.062155,0.156901,0.000000,0.246160,-0.037345,-0.000000
3.210000,1.126918,-0.162036,-1.264512,1.159770,-0.064321,-0.061318,-1.759204,-0.674127,-1.339261,0.395626,2.843997,-0.649438,13.145829,11.576581,37.578735,-0.059654,0.156496,0.000000,0.254128,-0.043513,-0.000000
3.220000,1.138427,-0.162713,-1.265192,1.142200,-0.070918,-0.074737,-1.754591,-0.645115,-1.343873,0.526880,2.957626,-0.272619,13.111270,11.153455,37.760191,-0.057073,0.156029,0.000000,0.262038,-0.049768,-0.000000
3.230000,1.149762,-0.163454,-1.266007,1.124682,-0.077220,-0.088183,-1.748667,-0.614988,-1.344710,0.657974,3.067158,0.105269,13.113403,10.757848,37.792585,-0.054414,0.155499,0.000000,0.269854,-0.056044,0.000000
3.240000,1.160921,-0.164256,-1.266956,1.107231,-0.083214,-0.101619,-1.741431,-0.583785,-1.341769,0.789263,3.172884,0.482737,13.149953,10.392726,37.676089,-0.051676,0.154906,0.000000,0.277625,-0.062408,0.000000
3.250000,1.171907,-0.165117,-1.268039,1.089858,-0.088892,-0.115006,-1.732880,-0.551542,-1.335061,0.921080,3.275124,0.858295,13.218643,10.061055,37.410871,-0.048861,0.154249,0.000000,0.285401,-0.068920,0.000000
3.260000,1.182719,-0.166033,-1.269256,1.072578,-0.094241,-0.128308,-1.723013,-0.518311,-1.324600,1.053100,3.372574,1.231740,13.333235,9.807540,36.964736,-0.045970,0.153526,0.000000,0.293081,-0.075569,-0.000000
3.270000,1.193358,-0.167001,-1.270605,1.055403,-0.099254,-0.141486,-1.711813,-0.484098,-1.310444,1.187114,3.469526,1.598554,13.473454,9.588299,36.374184,-0.042999,0.152735,0.000000,0.301073,-0.082588,0.000000
3.280000,1.203827,-0.168017,-1.272085,1.038346,-0.103920,-0.154505,-1.699266,-0.448927,-1.292651,1.322640,3.564447,1.958757,13.635058,9.401186,35.643349,-0.039948,0.151872,0.000000,0.309253,-0.089946,0.000000
3.290000,1.214126,-0.169078,-1.273694,1.021422,-0.108230,-0.167327,-1.685355,-0.412815,-1.271295,1.459872,3.657649,2.310967,13.813809,9.244057,34.776365,-0.036813,0.150933,0.000000,0.317662,-0.097697,-0.000000
3.300000,1.224256,-0.170180,-1.275431,1.004644,-0.112173,-0.179919,-1.670062,-0.375779,-1.246463,1.598960,3.749421,2.653844,14.005468,9.114768,33.777365,-0.033593,0.149915,0.000000,0.326339,-0.105885,0.000000
3.310000,1.234219,-0.171320,-1.277292,0.988025,-0.115742,-0.192245,-1.653372,-0.337838,-1.218245,1.739778,3.839336,2.986934,14.211670,9.028715,32.629119,-0.030286,0.148813,0.000000,0.335256,-0.114523,-0.000000
3.320000,1.244017,-0.172494,-1.279275,0.971581,-0.118927,-0.204273,-1.635260,-0.298995,-1.186765,1.882943,3.929284,3.306976,14.421582,8.964066,31.359741,-0.026887,0.147622,0.000000,0.344595,-0.123727,0.000000
3.330000,1.253651,-0.173697,-1.281376,0.955325,-0.121719,-0.215970,-1.615706,-0.259254,-1.152150,2.028205,4.018674,3.613747,14.630243,8.916526,29.975979,-0.023393,0.146336,0.000000,0.354310,-0.133494,-0.000000
3.340000,1.263124,-0.174927,-1.283593,0.939272,-0.124109,-0.227306,-1.594689,-0.218622,-1.114538,2.175527,4.107657,3.906137,14.832696,8.881805,28.484585,-0.019800,0.144949,0.000000,0.364421,-0.143854,0.000000
3.350000,1.272438,-0.176178,-1.285921,0.923436,-0.126088,-0.238252,-1.572189,-0.177102,-1.074078,2.324822,4.196339,4.183103,15.023982,8.855608,26.892306,-0.016103,0.143456,0.000000,0.374941,-0.154831,-0.000000
3.360000,1.281594,-0.177447,-1.288357,0.907833,-0.127648,-0.248779,-1.548186,-0.134705,-1.030922,2.475966,4.283961,4.444412,15.198818,8.854422,25.187144,-0.012300,0.141850,0.000000,0.385803,-0.166436,-0.000000
3.370000,1.290595,-0.178730,-1.290895,0.892477,-0.128779,-0.258862,-1.522664,-0.091423,-0.985248,2.628743,4.372491,4.687399,15.352609,8.850633,23.396893,-0.008386,0.140125,0.000000,0.397188,-0.178703,-0.000000
3.380000,1.299444,-0.180021,-1.293532,0.877385,-0.129473,-0.268476,-1.495606,-0.047256,-0.937235,2.782932,4.460942,4.912096,15.480435,8.837403,21.530598,-0.004355,0.138274,0.000000,0.409002,-0.191626,0.000000
3.390000,1.308144,-0.181318,-1.296263,0.862570,-0.129721,-0.277599,-1.467001,-0.002205,-0.887070,2.938248,4.549185,5.117788,15.577377,8.807896,19.597306,-0.000204,0.136290,0.000000,0.421227,-0.205206,-0.000000
3.400000,1.316697,-0.182614,-1.299083,0.848050,-0.129514,-0.286211,-1.436839,0.043727,-0.834945,3.094360,4.637023,5.303849,15.638516,8.755276,17.606062,0.004071,0.134168,0.000000,0.433835,-0.219435,-0.000000
3.410000,1.325106,-0.183906,-1.301986,0.833839,-0.128844,-0.294292,-1.405111,0.090545,-0.781058,3.251052,4.725261,5.469900,15.654668,8.645661,15.562012,0.008475,0.131899,0.000000,0.446889,-0.234310,0.000000
3.420000,1.333374,-0.185190,-1.304967,0.819953,-0.127701,-0.301827,-1.371818,0.138228,-0.725616,3.407493,4.811032,5.615132,15.625702,8.502570,13.478577,0.013009,0.129479,0.000000,0.460101,-0.249774,0.000000
3.430000,1.341506,-0.186459,-1.308020,0.806408,-0.126077,-0.308800,-1.336963,0.186760,-0.668826,3.563401,4.895189,5.739372,15.547218,8.322479,11.365282,0.017677,0.126901,0.000000,0.473529,-0.265807,-0.000000
3.440000,1.349504,-0.187709,-1.311141,0.793219,-0.123963,-0.315200,-1.300553,0.236125,-0.610899,3.718258,4.977346,5.842370,15.414822,8.101862,9.231650,0.022481,0.124160,0.000000,0.487106,-0.282368,0.000000
3.450000,1.357372,-0.188936,-1.314322,0.780402,-0.121352,-0.321015,-1.262603,0.286299,-0.552050,3.871503,5.057080,5.923969,15.224115,7.837195,7.087202,0.027420,0.121251,0.000000,0.500759,-0.299403,0.000000
3.460000,1.365113,-0.190135,-1.317559,0.767972,-0.118235,-0.326238,-1.223123,0.337266,-0.492491,4.023241,5.134819,5.984145,14.952759,7.502525,4.940557,0.032497,0.118168,0.000000,0.514492,-0.316916,-0.000000
3.470000,1.372732,-0.191299,-1.320845,0.755944,-0.114604,-0.330863,-1.182148,0.388983,-0.432438,4.171143,5.207970,6.022849,14.616495,7.119501,2.802254,0.037709,0.114908,0.000000,0.528008,-0.334673,0.000000
3.480000,1.380233,-0.192425,-1.324174,0.744333,-0.110453,-0.334886,-1.139713,0.441412,-0.372105,4.315348,5.277046,6.040250,14.213124,6.687343,0.681927,0.043056,0.111469,0.000000,0.541305,-0.352666,-0.000000
3.490000,1.387620,-0.193507,-1.327541,0.733154,-0.105774,-0.338305,-1.095856,0.494509,-0.311703,4.455174,5.341551,6.036579,13.740446,6.205273,-1.410790,0.048534,0.107848,0.000000,0.554279,-0.370801,0.000000
3.500000,1.394898,-0.194539,-1.330938,0.722421,-0.100560,-0.341121,-1.050626,0.548226,-0.251443,4.589918,5.400982,6.012159,13.196260,5.672511,-3.466262,0.054140,0.104044,0.000000,0.566820,-0.388974,-0.000000
3.510000,1.402070,-0.195516,-1.334361,0.712146,-0.094807,-0.343335,-1.004064,0.602515,-0.191531,4.720012,5.455319,5.967093,12.549106,5.075903,-5.466835,0.059869,0.100056,0.000000,0.578857,-0.407192,-0.000000
3.520000,1.409142,-0.196433,-1.337803,0.702343,-0.088509,-0.344953,-0.956249,0.657312,-0.132166,4.841966,5.502884,5.902649,11.829627,4.428562,-7.411879,0.065715,0.095886,0.000000,0.590158,-0.425051,-0.000000
3.530000,1.416119,-0.197284,-1.341258,0.693025,-0.081660,-0.345981,-0.907250,0.712551,-0.073542,4.956368,5.543724,5.819069,11.039207,3.731224,-9.292741,0.071670,0.091538,0.000000,0.600653,-0.442554,0.000000
3.540000,1.423005,-0.198065,-1.344721,0.684202,-0.074256,-0.346427,-0.857149,0.768162,-0.015847,5.062518,5.577344,5.717037,10.179229,2.984627,-11.100770,0.077725,0.087014,0.000000,0.610217,-0.459569,-0.000000
3.550000,1.429805,-0.198768,-1.348185,0.675885,-0.066295,-0.346302,-0.806030,0.824072,0.040740,5.159726,5.603255,5.597325,9.251076,2.189507,-12.827315,0.083871,0.082320,0.000000,0.618725,-0.475956,0.000000
3.560000,1.436524,-0.199389,-1.351645,0.668084,-0.057774,-0.345616,-0.753975,0.880212,0.096033,5.248383,5.622037,5.459763,8.229209,1.319772,-14.437750,0.090097,0.077462,0.000000,0.626151,-0.491691,-0.000000
3.570000,1.443168,-0.199921,-1.355095,0.660808,-0.048691,-0.344385,-0.701097,0.936483,0.149883,5.325305,5.630702,5.307729,7.145229,0.406273,-15.952578,0.096389,0.072449,0.000000,0.632138,-0.506349,0.000000
3.580000,1.449742,-0.200360,-1.358531,0.654065,-0.039045,-0.342624,-0.647506,0.992795,0.202138,5.391096,5.630030,5.141048,6.003816,-0.546968,-17.366327,0.102735,0.067292,0.000000,0.636686,-0.519922,-0.000000
3.590000,1.456251,-0.200700,-1.361946,0.647860,-0.028835,-0.340348,-0.593314,1.049051,0.252658,5.445205,5.619644,4.960758,4.809650,-1.535930,-18.673526,0.109118,0.062000,0.000000,0.639690,-0.532270,0.000000
3.600000,1.462701,-0.200935,-1.365336,0.642200,-0.018064,-0.337577,-0.538642,1.105154,0.301312,5.487128,5.599206,4.767951,3.567410,-2.556590,-19.868705,0.115523,0.056587,0.000000,0.641058,-0.543260,-0.000000
3.610000,1.469097,-0.201060,-1.368696,0.637088,-0.006733,-0.334328,-0.483606,1.161006,0.347966,5.517086,5.568918,4.562511,2.264671,-3.617516,-20.914459,0.121934,0.051066,0.000000,0.640742,-0.552841,-0.000000
3.620000,1.475445,-0.201068,-1.372021,0.632528,0.005155,-0.330624,-0.428345,1.216496,0.392529,5.533063,5.527344,4.348633,0.925311,-4.700556,-21.841160,0.128332,0.045453,0.000000,0.638589,-0.560710,0.000000
3.630000,1.481749,-0.200955,-1.375307,0.628522,0.017595,-0.326485,-0.372990,1.271517,0.434909,5.535493,5.474852,4.126090,-0.443895,-5.800145,-22.647247,0.134699,0.039764,0.000000,0.634590,-0.566850,-0.000000
3.640000,1.488017,-0.200714,-1.378550,0.625068,0.030583,-0.321934,-0.317681,1.325957,0.475026,5.524109,5.411304,3.896096,-1.836172,-6.910720,-23.331159,0.141017,0.034018,0.000000,0.628711,-0.571167,0.000000
3.650000,1.494253,-0.200341,-1.381744,0.622168,0.044112,-0.316992,-0.262555,1.379706,0.512811,5.498715,5.336619,3.659879,-3.244749,-8.026717,-23.891334,0.147267,0.028233,0.000000,0.620935,-0.573583,0.000000
3.660000,1.500462,-0.199830,-1.384888,0.619816,0.058175,-0.311685,-0.207751,1.432648,0.548193,5.459448,5.250458,3.417343,-4.669572,-9.134695,-24.292286,0.153429,0.022427,0.000000,0.611208,-0.574066,0.000000
3.670000,1.506651,-0.199176,-1.387977,0.618011,0.072762,-0.306036,-0.153413,1.484678,0.581146,5.405617,5.153589,3.172928,-6.096323,-10.237933,-24.570535,0.159485,0.016622,0.000000,0.599681,-0.572496,0.000000
3.680000,1.512824,-0.198373,-1.391008,0.616746,0.087865,-0.300070,-0.099686,1.535684,0.611644,5.337541,5.045731,2.926333,-7.517403,-11.331832,-24.728672,0.165417,0.010837,0.000000,0.586328,-0.568883,0.000000
3.690000,1.518987,-0.197417,-1.393977,0.616015,0.103472,-0.293812,-0.046710,1.585556,0.639670,5.255313,4.926999,2.678746,-8.925215,-12.411795,-24.769291,0.171206,0.005094,0.000000,0.571202,-0.563219,-0.000000
3.700000,1.525146,-0.196302,-1.396883,0.615809,0.119572,-0.287285,0.005374,1.634188,0.665219,5.159106,4.797557,2.431330,-10.312163,-13.473222,-24.694985,0.176835,-0.000588,0.000000,0.554371,-0.555514,-0.000000
3.710000,1.531305,-0.195024,-1.399722,0.616119,0.136151,-0.280515,0.056422,1.681472,0.688288,5.048784,4.657576,2.184090,-11.661016,-14.510602,-24.479780,0.182288,-0.006185,0.000000,0.535888,-0.545756,-0.000000
3.720000,1.537470,-0.193578,-1.402493,0.616933,0.153196,-0.273527,0.106305,1.727305,0.708910,4.925572,4.507396,1.940814,-12.974989,-15.520360,-24.158335,0.187548,-0.011680,0.000000,0.515910,-0.534091,0.000000
3.730000,1.543646,-0.191959,-1.405192,0.618241,0.170692,-0.266345,0.154891,1.771587,0.727117,4.789421,4.347276,1.701257,-14.247664,-16.498011,-23.736740,0.192601,-0.017051,0.000000,0.494510,-0.520536,-0.000000
3.740000,1.549837,-0.190162,-1.407819,0.620027,0.188622,-0.258993,0.202052,1.814219,0.742951,4.640778,4.177558,1.466392,-15.472623,-17.439066,-23.221086,0.197434,-0.022281,0.000000,0.471802,-0.505169,-0.000000
3.750000,1.556048,-0.188185,-1.410372,0.622276,0.206971,-0.251494,0.247666,1.855107,0.756463,4.480149,3.998631,1.237129,-16.643448,-18.339040,-22.617465,0.202033,-0.027349,0.000000,0.447906,-0.488083,0.000000
3.760000,1.562284,-0.186022,-1.412849,0.624975,0.225719,-0.243871,0.291608,1.894159,0.767708,4.307278,3.810668,1.013696,-17.732699,-19.186850,-21.916316,0.206388,-0.032238,0.000000,0.422904,-0.469289,-0.000000
3.770000,1.568549,-0.183669,-1.415249,0.628103,0.244848,-0.236147,0.333777,1.931293,0.776762,4.124772,3.614764,0.798350,-18.757555,-19.985413,-21.141298,0.210488,-0.036933,0.000000,0.397023,-0.449124,0.000000
3.780000,1.574847,-0.181124,-1.417571,0.631644,0.264338,-0.228342,0.374070,1.966429,0.783702,3.932355,3.411136,0.591090,-19.714170,-20.731048,-20.300418,0.214326,-0.041419,0.000000,0.370346,-0.427605,-0.000000
3.790000,1.581183,-0.178381,-1.419815,0.635578,0.284169,-0.220479,0.412393,1.999492,0.788613,3.730728,3.200332,0.392534,-20.598702,-21.420077,-19.401684,0.217893,-0.045681,0.000000,0.343002,-0.404860,0.000000
3.800000,1.587560,-0.175439,-1.421981,0.639885,0.304321,-0.212577,0.448656,2.030413,0.791584,3.520634,2.982935,0.203222,-21.407306,-22.048820,-18.453103,0.221184,-0.049708,0.000000,0.315117,-0.381023,0.000000
3.810000,1.593982,-0.172294,-1.424067,0.644544,0.324770,-0.204654,0.482770,2.059117,0.792711,3.301937,2.758351,0.023722,-22.113127,-22.582847,-17.465463,0.224192,-0.053487,0.000000,0.286692,-0.356131,-0.000000
3.820000,1.600452,-0.168943,-1.426074,0.649533,0.345496,-0.196728,0.514673,2.085564,0.792092,3.077613,2.530118,-0.145849,-22.738150,-23.052996,-16.443651,0.226917,-0.057010,0.000000,0.258143,-0.330553,0.000000
3.830000,1.606973,-0.165383,-1.428001,0.654830,0.366474,-0.188817,0.544303,2.109705,0.789828,2.847447,2.297504,-0.305063,-23.281348,-23.459353,-15.395334,0.229355,-0.060270,0.000000,0.229441,-0.304314,0.000000
3.840000,1.613549,-0.161613,-1.429850,0.660411,0.387682,-0.180937,0.571605,2.131501,0.786026,2.612262,2.061144,-0.453693,-23.741696,-23.802003,-14.328177,0.231505,-0.063258,0.000000,0.200689,-0.277544,-0.000000
3.850000,1.620183,-0.157629,-1.431620,0.666254,0.409096,-0.173102,0.596534,2.150918,0.780790,2.372893,1.821676,-0.591589,-24.118168,-24.081033,-13.249848,0.233369,-0.065971,0.000000,0.171982,-0.250374,0.000000
3.860000,1.626875,-0.153430,-1.433312,0.672334,0.430692,-0.165326,0.619043,2.167925,0.774236,2.129319,1.579542,-0.718154,-24.387946,-24.291649,-12.181255,0.234945,-0.068403,0.000000,0.143403,-0.222839,0.000000
3.870000,1.633630,-0.149014,-1.434927,0.678627,0.452447,-0.157621,0.639113,2.182503,0.766463,1.884438,1.335834,-0.834632,-24.574464,-24.439415,-11.115202,0.236237,-0.070553,0.000000,0.115043,-0.195270,0.000000
3.880000,1.640448,-0.144381,-1.436465,0.685108,0.474334,-0.150000,0.656727,2.194637,0.757578,1.638102,1.090961,-0.940487,-24.679362,-24.525015,-10.057735,0.237247,-0.072420,0.000000,0.086967,-0.167680,0.000000
3.890000,1.647333,-0.139527,-1.437927,0.691753,0.496331,-0.142473,0.671873,2.204320,0.747688,1.391118,0.845539,-1.035835,-24.704284,-24.549132,-9.014900,0.237978,-0.074004,0.000000,0.059241,-0.140174,-0.000000
3.900000,1.654284,-0.134454,-1.439315,0.698538,0.518413,-0.135049,0.684549,2.211548,0.736896,1.144277,0.600181,-1.120853,-24.650871,-24.512451,-7.992742,0.238433,-0.075306,0.000000,0.031920,-0.112850,-0.000000
3.910000,1.661304,-0.129159,-1.440629,0.705436,0.540554,-0.127738,0.694756,2.216321,0.725314,0.897851,0.355015,-1.194940,-24.508000,-24.403644,-7.018508,0.238618,-0.076327,0.000000,0.005029,-0.085755,-0.000000
3.920000,1.668393,-0.123643,-1.441870,0.712425,0.562731,-0.120546,0.702512,2.218653,0.713029,0.653793,0.111765,-1.260378,-24.291642,-24.236876,-6.074446,0.238536,-0.077072,0.000000,-0.021322,-0.059085,0.000000
3.930000,1.675552,-0.117904,-1.443040,0.719479,0.584919,-0.113479,0.707840,2.218562,0.700137,0.412252,-0.129537,-1.316541,-24.005001,-24.014303,-5.164006,0.238193,-0.077545,0.000000,-0.047126,-0.032865,-0.000000
3.940000,1.682783,-0.111944,-1.444140,0.726574,0.607094,-0.106545,0.710768,2.216071,0.686728,0.173916,-0.368342,-1.363781,-23.651282,-23.738078,-4.290638,0.237595,-0.077750,0.000000,-0.072349,-0.007165,0.000000
3.950000,1.690084,-0.105763,-1.445171,0.733686,0.629233,-0.099746,0.711331,2.211206,0.672890,-0.060561,-0.604127,-1.402488,-23.233691,-23.410357,-3.457791,0.236748,-0.077694,0.000000,-0.096961,0.017951,-0.000000
3.960000,1.697456,-0.099360,-1.446135,0.740793,0.651311,-0.093088,0.709570,2.203998,0.658715,-0.290770,-0.836573,-1.432262,-22.750004,-23.028556,-2.689673,0.235658,-0.077383,0.000000,-0.120938,0.042440,-0.000000
3.970000,1.704900,-0.092737,-1.447034,0.747870,0.673305,-0.086573,0.705533,2.194488,0.644270,-0.515614,-1.064754,-1.455505,-22.209520,-22.600148,-1.966434,0.234331,-0.076824,0.000000,-0.144260,0.066214,0.000000
3.980000,1.712414,-0.085894,-1.447867,0.754896,0.695193,-0.080204,0.699276,2.182718,0.629628,-0.734784,-1.288429,-1.471743,-21.616106,-22.127867,-1.288981,0.232775,-0.076024,0.000000,-0.166910,0.089244,0.000000
3.990000,1.719997,-0.078833,-1.448638,0.761848,0.716952,-0.073981,0.690858,2.168736,0.614857,-0.947772,-1.507174,-1.481440,-20.973632,-21.614447,-0.658222,0.230996,-0.074992,0.000000,-0.188870,0.111489,0.000000
4.000000,1.727650,-0.071555,-1.449348,0.768706,0.738560,-0.067907,0.680343,2.152592,0.600019,-1.154106,-1.720590,-1.485066,-20.285968,-21.062622,-0.075064,0.229000,-0.073736,0.000000,-0.210129,0.132914,-0.000000
4.010000,1.735371,-0.064063,-1.449997,0.775448,0.759997,-0.061981,0.667800,2.134342,0.585181,-1.353343,-1.928351,-1.482480,-19.557265,-20.474035,0.443845,0.226795,-0.072266,0.000000,-0.230664,0.153481,-0.000000
4.020000,1.743159,-0.056356,-1.450588,0.782055,0.781240,-0.056203,0.653301,2.114045,0.570386,-1.545114,-2.130010,-1.475645,-18.791077,-19.852647,0.915264,0.224389,-0.070589,0.000000,-0.250492,0.173178,-0.000000
4.030000,1.751012,-0.048438,-1.451121,0.788508,0.802271,-0.050573,0.636923,2.091763,0.555683,-1.729052,-2.325304,-1.464329,-17.991237,-19.201326,1.340213,0.221788,-0.068716,0.000000,-0.269592,0.191975,-0.000000
4.040000,1.758928,-0.040312,-1.451600,0.794788,0.823069,-0.045089,0.618747,2.067561,0.541113,-1.904839,-2.513947,-1.448992,-17.161580,-18.522939,1.719711,0.219000,-0.066656,0.000000,-0.287957,0.209852,0.000000
4.050000,1.766907,-0.031978,-1.452024,0.800877,0.843616,-0.039750,0.598855,2.041507,0.526715,-2.072197,-2.695682,-1.430083,-16.305942,-17.820354,2.054777,0.216031,-0.064420,0.000000,-0.305581,0.226792,0.000000
4.060000,1.774945,-0.023440,-1.452395,0.806760,0.863893,-0.034554,0.577334,2.013672,0.512525,-2.230736,-2.870214,-1.407696,-15.431904,-17.098178,2.337695,0.212891,-0.062016,0.000000,-0.322443,0.242766,0.000000
4.070000,1.783041,-0.014701,-1.452715,0.812419,0.883884,-0.029499,0.554270,1.984128,0.498570,-2.380605,-3.037506,-1.383077,-14.539096,-16.357327,2.579290,0.209585,-0.059456,0.000000,-0.338575,0.257805,-0.000000
4.080000,1.791193,-0.005763,-1.452986,0.817840,0.903571,-0.024582,0.529752,1.952947,0.484871,-2.521467,-3.197307,-1.356241,-13.630892,-15.600459,2.781651,0.206122,-0.056748,0.000000,-0.353954,0.271881,-0.000000
4.090000,1.799397,0.003369,-1.453207,0.823009,0.922938,-0.019800,0.503871,1.920207,0.471451,-2.653183,-3.349471,-1.327568,-12.710669,-14.830229,2.946866,0.202508,-0.053904,0.000000,-0.368578,0.284989,0.000000
4.100000,1.807652,0.012694,-1.453382,0.827913,0.941970,-0.015152,0.476719,1.885984,0.458325,-2.775651,-3.493876,-1.297420,-11.781803,-14.049293,3.077025,0.198753,-0.050933,0.000000,-0.382442,0.297126,0.000000
4.110000,1.815955,0.022208,-1.453511,0.832540,0.960653,-0.010633,0.448391,1.850357,0.445507,-2.888592,-3.630294,-1.266053,-10.852971,-13.263739,3.172075,0.194862,-0.047845,0.000000,-0.395529,0.308269,-0.000000
4.120000,1.824302,0.031906,-1.453595,0.836877,0.978972,-0.006241,0.418978,1.813404,0.433006,-2.992466,-3.758978,-1.233985,-9.921598,-12.472369,3.236509,0.190845,-0.044652,0.000000,-0.407873,0.318472,-0.000000
4.130000,1.832691,0.041786,-1.453636,0.840916,0.996916,-0.001972,0.388573,1.775204,0.420829,-3.087024,-3.879729,-1.201417,-8.990412,-11.677419,3.272678,0.186707,-0.041362,0.000000,-0.419456,0.327714,-0.000000
4.140000,1.841119,0.051843,-1.453635,0.844646,1.014473,0.002177,0.357268,1.735836,0.408979,-3.172283,-3.992522,-1.168618,-8.062140,-10.881123,3.282934,0.182458,-0.037985,0.000000,-0.430276,0.335999,-0.000000
4.150000,1.849583,0.062074,-1.453593,0.848059,1.031630,0.006209,0.325158,1.695380,0.397457,-3.248286,-4.097355,-1.135836,-7.139508,-10.085717,3.269627,0.178104,-0.034531,0.000000,-0.440333,0.343336,-0.000000
4.160000,1.858079,0.072474,-1.453511,0.851147,1.048377,0.010127,0.292336,1.653917,0.386260,-3.314878,-4.194088,-1.103397,-6.230883,-9.297452,3.237648,0.173654,-0.031011,0.000000,-0.449613,0.349709,0.000000
4.170000,1.866605,0.083040,-1.453391,0.853903,1.064705,0.013935,0.258890,1.611524,0.375387,-3.372687,-4.283141,-1.071261,-5.332662,-8.514056,3.186499,0.169115,-0.027434,0.000000,-0.458153,0.355184,-0.000000
4.180000,1.875156,0.093767,-1.453233,0.856323,1.080604,0.017636,0.224912,1.568280,0.364833,-3.421573,-4.364391,-1.039724,-4.446882,-7.737271,3.118221,0.164494,-0.023808,0.000000,-0.465938,0.359748,-0.000000
4.190000,1.883730,0.104651,-1.453038,0.858400,1.096068,0.021233,0.190488,1.524262,0.354590,-3.461672,-4.437914,-1.008947,-3.575579,-6.968842,3.034854,0.159798,-0.020143,0.000000,-0.472973,0.363415,0.000000
4.200000,1.892323,0.115687,-1.452808,0.860131,1.111087,0.024729,0.155707,1.479547,0.344651,-3.493140,-4.503801,-0.979070,-2.720791,-6.210511,2.938439,0.155037,-0.016449,0.000000,-0.479262,0.366201,0.000000
4.210000,1.900932,0.126871,-1.452544,0.861513,1.125657,0.028127,0.120656,1.434213,0.335003,-3.515937,-4.562003,-0.950406,-1.889924,-5.468067,2.835857,0.150216,-0.012733,0.000000,-0.484797,0.368100,-0.000000
4.220000,1.909552,0.138198,-1.452246,0.862544,1.139770,0.031430,0.085416,1.388332,0.325639,-3.530765,-4.613026,-0.922601,-1.078987,-4.738713,2.723716,0.145343,-0.009006,0.000000,-0.489619,0.369184,0.000000
4.230000,1.918181,0.149665,-1.451916,0.863221,1.153422,0.034641,0.050067,1.341977,0.316548,-3.537588,-4.656825,-0.895959,-0.289359,-4.023698,2.603463,0.140426,-0.005274,0.000000,-0.493721,0.369449,0.000000
4.240000,1.926815,0.161265,-1.451554,0.863545,1.166608,0.037762,0.014690,1.295219,0.307716,-3.536628,-4.693552,-0.870554,0.477582,-3.324268,2.476545,0.135471,-0.001546,0.000000,-0.497112,0.368917,-0.000000
4.250000,1.935451,0.172995,-1.451161,0.863515,1.179325,0.040796,-0.020640,1.248129,0.299132,-3.528117,-4.723367,-0.846445,1.220456,-2.641674,2.344411,0.130486,0.002170,0.000000,-0.499805,0.367610,0.000000
4.260000,1.944085,0.184850,-1.450738,0.863132,1.191570,0.043745,-0.055846,1.200776,0.290781,-3.512111,-4.746295,-0.823877,1.933031,-1.980972,2.213534,0.125477,0.005867,0.000000,-0.501798,0.365532,-0.000000
4.270000,1.952713,0.196825,-1.450286,0.862399,1.203340,0.046612,-0.090859,1.153225,0.282650,-3.489327,-4.762879,-0.802409,2.619377,-1.339135,2.079720,0.120452,0.009536,0.000000,-0.503138,0.362759,0.000000
4.280000,1.961331,0.208915,-1.449806,0.861316,1.214634,0.049399,-0.125610,1.105539,0.274728,-3.459814,-4.773143,-0.782290,3.278707,-0.716944,1.943803,0.115417,0.013172,0.000000,-0.503826,0.359294,0.000000
4.290000,1.969938,0.221116,-1.449298,0.859888,1.225450,0.052107,-0.160034,1.057782,0.267000,-3.423845,-4.777286,-0.763537,3.910237,-0.115180,1.806613,0.110378,0.016768,0.000000,-0.503878,0.355164,-0.000000
4.300000,1.978528,0.233423,-1.448764,0.858117,1.235789,0.054740,-0.194066,1.010013,0.259453,-3.381704,-4.775517,-0.746159,4.513182,0.465375,1.668984,0.105341,0.020317,0.000000,-0.503313,0.350399,0.000000
4.310000,1.987099,0.245830,-1.448204,0.856008,1.245651,0.057297,-0.227646,0.962292,0.252070,-3.333512,-4.767916,-0.730307,5.082518,1.020496,1.535549,0.100314,0.023813,0.000000,-0.502137,0.345009,0.000000
4.320000,1.995647,0.258334,-1.447618,0.853565,1.255035,0.059782,-0.260718,0.914673,0.244842,-3.279963,-4.755028,-0.715615,5.622219,1.553267,1.402873,0.095300,0.027250,0.000000,-0.500402,0.339070,-0.000000
4.330000,2.004169,0.270930,-1.447009,0.850795,1.263945,0.062194,-0.293228,0.867209,0.237754,-3.221167,-4.736926,-0.702245,6.132019,2.063327,1.271324,0.090307,0.030624,0.000000,-0.498114,0.332590,-0.000000
4.340000,2.012662,0.283612,-1.446375,0.847703,1.272380,0.064537,-0.325125,0.819951,0.230793,-3.157424,-4.713838,-0.690184,6.611653,2.550317,1.141267,0.085340,0.033928,0.000000,-0.495295,0.325601,0.000000
4.350000,2.021122,0.296376,-1.445718,0.844295,1.280344,0.066811,-0.356361,0.772948,0.223946,-3.089036,-4.685998,-0.679414,7.060855,3.013878,1.013070,0.080403,0.037158,0.000000,-0.491970,0.318136,-0.000000
4.360000,2.029547,0.309217,-1.445039,0.840578,1.287840,0.069016,-0.386890,0.726248,0.217199,-3.016168,-4.653521,-0.669994,7.475794,3.450647,0.889105,0.075502,0.040309,0.000000,-0.488151,0.310211,-0.000000
4.370000,2.037933,0.322131,-1.444338,0.836560,1.294871,0.071155,-0.416671,0.679892,0.210542,-2.939462,-4.616930,-0.661713,7.860206,3.863634,0.767488,0.070642,0.043378,0.000000,-0.483889,0.301894,0.000000
4.380000,2.046277,0.335113,-1.443616,0.832247,1.301439,0.073227,-0.445667,0.633922,0.203961,-2.859065,-4.576328,-0.654636,8.214263,4.252846,0.648340,0.065826,0.046361,0.000000,-0.479198,0.293201,-0.000000
4.390000,2.054577,0.348158,-1.442874,0.827649,1.307550,0.075234,-0.473841,0.588378,0.197445,-2.775278,-4.531952,-0.648738,8.538136,4.618291,0.531782,0.061059,0.049254,0.000000,-0.474102,0.284165,-0.000000
4.400000,2.062829,0.361262,-1.442111,0.822773,1.313208,0.077176,-0.501162,0.543295,0.190982,-2.688402,-4.484041,-0.643992,8.831995,4.959977,0.417934,0.056345,0.052054,0.000000,-0.468627,0.274816,0.000000
4.410000,2.071031,0.374421,-1.441330,0.817629,1.318418,0.079054,-0.527599,0.498709,0.184561,-2.598625,-4.432733,-0.640384,9.093174,5.275403,0.307278,0.051688,0.054758,0.000000,-0.462789,0.265176,-0.000000
4.420000,2.079181,0.387629,-1.440531,0.812224,1.323184,0.080868,-0.553126,0.454651,0.178171,-2.506510,-4.378499,-0.637853,9.325030,5.567391,0.199531,0.047090,0.057364,0.000000,-0.456637,0.255303,-0.000000
4.430000,2.087275,0.400883,-1.439713,0.806569,1.327513,0.082618,-0.577722,0.411149,0.171801,-2.412220,-4.321462,-0.636384,9.528080,5.836257,0.094771,0.042556,0.059869,0.000000,-0.450187,0.245215,0.000000
4.440000,2.095311,0.414178,-1.438878,0.800673,1.331409,0.084304,-0.601364,0.368230,0.165440,-2.316042,-4.261850,-0.635947,9.702843,6.082315,-0.006925,0.038088,0.062272,0.000000,-0.443462,0.234944,-0.000000
4.450000,2.103288,0.427510,-1.438027,0.794545,1.334879,0.085926,-0.624037,0.325919,0.159079,-2.218256,-4.199891,-0.636512,9.849838,6.305879,-0.105481,0.033688,0.064571,0.000000,-0.436490,0.224518,0.000000
4.460000,2.111201,0.440874,-1.437160,0.788195,1.337930,0.087485,-0.645724,0.284240,0.152707,-2.119054,-4.135728,-0.638019,9.967505,6.505286,-0.201495,0.029359,0.066765,0.000000,-0.429285,0.213959,-0.000000
4.470000,2.119051,0.454267,-1.436278,0.781634,1.340566,0.088981,-0.666415,0.243211,0.146315,-2.018901,-4.069769,-0.640500,10.058696,6.683072,-0.294131,0.025103,0.068852,0.000000,-0.421893,0.203314,-0.000000
4.480000,2.126833,0.467684,-1.435381,0.774871,1.342796,0.090412,-0.686100,0.202850,0.139894,-1.917966,-4.002137,-0.643890,10.124182,6.839792,-0.383229,0.020921,0.070832,0.000000,-0.414327,0.192603,0.000000
4.490000,2.134548,0.481122,-1.434470,0.767915,1.344626,0.091778,-0.704772,0.163173,0.133434,-1.816501,-3.933041,-0.648152,10.164737,6.976003,-0.468628,0.016817,0.072705,0.000000,-0.406611,0.181853,-0.000000
4.500000,2.142191,0.494575,-1.433545,0.760778,1.346062,0.093080,-0.722429,0.124194,0.126928,-1.714752,-3.862683,-0.653250,10.181134,7.092262,-0.550168,0.012790,0.074469,0.000000,-0.398766,0.171088,0.000000
4.510000,2.149763,0.508042,-1.432608,0.753470,1.347112,0.094317,-0.739067,0.085924,0.120367,-1.612904,-3.791204,-0.659105,10.172823,7.187708,-0.628630,0.008842,0.076127,0.000000,-0.390810,0.160329,0.000000
4.520000,2.157260,0.521516,-1.431659,0.746001,1.347783,0.095487,-0.754687,0.048372,0.113743,-1.511311,-3.718928,-0.665766,10.142060,7.264489,-0.702798,0.004974,0.077676,0.000000,-0.382776,0.149613,0.000000
4.530000,2.164682,0.534996,-1.430699,0.738380,1.348082,0.096591,-0.769294,0.011547,0.107049,-1.410134,-3.645975,-0.673146,10.089782,7.323334,-0.772397,0.001186,0.079119,0.000000,-0.374679,0.138956,0.000000
4.540000,2.172027,0.548477,-1.429728,0.730618,1.348016,0.097628,-0.782892,-0.024545,0.100278,-1.309584,-3.572519,-0.681198,10.016921,7.364975,-0.837152,-0.002520,0.080456,0.000000,-0.366537,0.128382,0.000000
4.550000,2.179294,0.561955,-1.428747,0.722725,1.347593,0.098597,-0.795489,-0.059902,0.093423,-1.209861,-3.498730,-0.689872,9.924414,7.390142,-0.896786,-0.006144,0.081687,0.000000,-0.358369,0.117910,0.000000
4.560000,2.186481,0.575427,-1.427756,0.714712,1.346821,0.099496,-0.807092,-0.094519,0.086479,-1.111134,-3.424736,-0.699095,9.812583,7.398733,-0.951552,-0.009687,0.082814,0.000000,-0.350189,0.107559,0.000000
4.570000,2.193588,0.588890,-1.426757,0.706587,1.345705,0.100326,-0.817715,-0.128397,0.079440,-1.013641,-3.350768,-0.708860,9.683049,7.392412,-1.000584,-0.013148,0.083839,0.000000,-0.342021,0.097353,-0.000000
4.580000,2.200613,0.602340,-1.425750,0.698360,1.344255,0.101085,-0.827370,-0.161535,0.072300,-0.917529,-3.276934,-0.719086,9.536822,7.372011,-1.043541,-0.016528,0.084762,0.000000,-0.333878,0.087308,-0.000000
4.590000,2.207555,0.615774,-1.424735,0.690042,1.342477,0.101771,-0.836071,-0.193936,0.065057,-0.822957,-3.203372,-0.729710,9.374910,7.338362,-1.080085,-0.019826,0.085586,0.000000,-0.325774,0.077440,0.000000
4.600000,2.214413,0.629189,-1.423715,0.681642,1.340379,0.102385,-0.843835,-0.225604,0.057705,-0.730079,-3.130209,-0.740665,9.198324,7.292297,-1.109875,-0.023043,0.086312,0.000000,-0.317722,0.067765,-0.000000
4.610000,2.221187,0.642581,-1.422688,0.673169,1.337967,0.102925,-0.850679,-0.256542,0.050242,-0.639037,-3.057556,-0.751895,9.008099,7.234427,-1.132270,-0.026180,0.086942,0.000000,-0.309736,0.058299,-0.000000
4.620000,2.227876,0.655947,-1.421656,0.664632,1.335250,0.103390,-0.856622,-0.286757,0.042667,-0.549961,-2.985546,-0.763299,8.805215,7.165832,-1.147270,-0.029238,0.087479,0.000000,-0.301828,0.049054,-0.000000
4.630000,2.234480,0.669285,-1.420620,0.656039,1.332235,0.103778,-0.861685,-0.316255,0.034976,-0.462972,-2.914272,-0.774815,8.590677,7.087372,-1.154572,-0.032217,0.087924,0.000000,-0.294009,0.040043,0.000000
4.640000,2.240997,0.682591,-1.419581,0.647401,1.328928,0.104089,-0.865889,-0.345045,0.027170,-0.378183,-2.843828,-0.786364,8.365492,6.999905,-1.153874,-0.035119,0.088281,0.000000,-0.286289,0.031279,-0.000000
4.650000,2.247428,0.695863,-1.418539,0.638724,1.325336,0.104321,-0.869256,-0.373135,0.019249,-0.295694,-2.774301,-0.797865,8.130667,6.904290,-1.144874,-0.037943,0.088551,0.000000,-0.278677,0.022770,0.000000
4.660000,2.253771,0.709097,-1.417495,0.630018,1.321467,0.104474,-0.871811,-0.400535,0.011213,-0.215621,-2.705782,-0.809281,7.887781,6.801755,-1.126055,-0.040693,0.088738,0.000000,-0.271183,0.014530,-0.000000
4.670000,2.260028,0.722291,-1.416450,0.621291,1.317328,0.104545,-0.873577,-0.427254,0.003064,-0.137990,-2.638304,-0.820411,7.637197,6.692745,-1.098478,-0.043367,0.088843,0.000000,-0.263811,0.006560,0.000000
4.680000,2.266197,0.735442,-1.415404,0.612549,1.312924,0.104534,-0.874579,-0.453304,-0.005194,-0.062899,-2.571945,-0.831221,7.379849,6.578075,-1.061987,-0.045969,0.088870,0.000000,-0.256569,-0.001127,-0.000000
4.690000,2.272279,0.748549,-1.414359,0.603802,1.308264,0.104441,-0.874843,-0.478697,-0.013559,0.009588,-2.506759,-0.841621,7.116672,6.458558,-1.016429,-0.048499,0.088821,0.000000,-0.249463,-0.008528,0.000000
4.700000,2.278273,0.761607,-1.413316,0.595055,1.303353,0.104263,-0.874396,-0.503444,-0.022025,0.079418,-2.442788,-0.851519,6.848604,6.335008,-0.961650,-0.050959,0.088700,0.000000,-0.242498,-0.015636,-0.000000
4.710000,2.284180,0.774615,-1.412274,0.586316,1.298197,0.104000,-0.873265,-0.527557,-0.030588,0.146507,-2.380105,-0.860898,6.577588,6.209155,-0.895575,-0.053350,0.088509,0.000000,-0.235682,-0.022442,0.000000
4.720000,2.290000,0.787570,-1.411236,0.577592,1.292804,0.103651,-0.871475,-0.551050,-0.039241,0.210914,-2.318654,-0.869485,6.303427,6.080785,-0.820205,-0.055673,0.088252,0.000000,-0.229010,-0.028953,-0.000000
4.730000,2.295732,0.800470,-1.410202,0.568889,1.287178,0.103215,-0.869055,-0.573935,-0.047975,0.272567,-2.258496,-0.877272,6.026934,5.950600,-0.735623,-0.057931,0.087930,0.000000,-0.222489,-0.035162,-0.000000
4.740000,2.301377,0.813313,-1.409172,0.560213,1.281327,0.102691,-0.866033,-0.596224,-0.056783,0.331447,-2.199646,-0.884167,5.748921,5.819302,-0.641909,-0.060123,0.087548,0.000000,-0.216121,-0.041066,-0.000000
4.750000,2.306936,0.826096,-1.408148,0.551570,1.275256,0.102079,-0.862436,-0.617932,-0.065655,0.387543,-2.142111,-0.890080,5.470200,5.687593,-0.539145,-0.062253,0.087108,0.000000,-0.209907,-0.046666,0.000000
4.760000,2.312409,0.838817,-1.407131,0.542966,1.268970,0.101378,-0.858292,-0.639071,-0.074582,0.440800,-2.085946,-0.895008,5.192898,5.557517,-0.425181,-0.064322,0.086614,0.000000,-0.203852,-0.051957,-0.000000
4.770000,2.317796,0.851475,-1.406121,0.534406,1.262476,0.100587,-0.853629,-0.659655,-0.083552,0.491345,-2.031018,-0.898654,4.916350,5.428270,-0.302602,-0.066331,0.086068,0.000000,-0.197947,-0.056950,0.000000
4.780000,2.323097,0.864066,-1.405119,0.525895,1.255779,0.099707,-0.848474,-0.679696,-0.092551,0.539131,-1.977376,-0.901033,4.641209,5.300389,-0.171761,-0.068282,0.085474,0.000000,-0.192195,-0.061642,-0.000000
4.790000,2.328314,0.876590,-1.404127,0.517438,1.248884,0.098736,-0.842856,-0.699207,-0.101568,0.584176,-1.925004,-0.902063,4.368125,5.174412,-0.033014,-0.070175,0.084833,0.000000,-0.186596,-0.066037,-0.000000
4.800000,2.333446,0.889043,-1.403145,0.509039,1.241796,0.097675,-0.836800,-0.718200,-0.110588,0.626503,-1.873880,-0.901668,4.097748,5.050876,0.113287,-0.072014,0.084151,0.000000,-0.181148,-0.070136,0.000000
4.810000,2.338495,0.901425,-1.402174,0.500703,1.234522,0.096525,-0.830335,-0.736689,-0.119597,0.666084,-1.824038,-0.899855,3.832211,4.931880,0.268850,-0.073799,0.083428,0.000000,-0.175855,-0.073939,0.000000
4.820000,2.343460,0.913733,-1.401215,0.492434,1.227064,0.095284,-0.823487,-0.754685,-0.128579,0.703094,-1.775301,-0.896361,3.570502,4.816210,0.431005,-0.075532,0.082669,0.000000,-0.170702,-0.077462,0.000000
4.830000,2.348344,0.925966,-1.400268,0.484235,1.219429,0.093953,-0.816282,-0.772199,-0.137519,0.737508,-1.727702,-0.891215,3.313091,4.704211,0.599146,-0.077213,0.081875,0.000000,-0.165691,-0.080705,-0.000000
4.840000,2.353145,0.938121,-1.399336,0.476109,1.211622,0.092533,-0.808745,-0.789243,-0.146398,0.769372,-1.681203,-0.884360,3.060449,4.596230,0.772665,-0.078846,0.081051,0.000000,-0.160819,-0.083675,-0.000000
4.850000,2.357866,0.950197,-1.398418,0.468061,1.203646,0.091025,-0.800903,-0.805827,-0.155200,0.798734,-1.635763,-0.875746,2.813045,4.492613,0.950955,-0.080430,0.080198,0.000000,-0.156084,-0.086375,-0.000000
4.860000,2.362507,0.962193,-1.397516,0.460092,1.195507,0.089430,-0.792779,-0.821962,-0.163908,0.825593,-1.591397,-0.865386,2.572835,4.395265,1.134891,-0.081968,0.079319,0.000000,-0.151486,-0.088810,-0.000000
4.870000,2.367068,0.974107,-1.396630,0.452206,1.187208,0.087748,-0.784399,-0.837658,-0.172502,0.850145,-1.547911,-0.853103,2.338620,4.302783,1.322204,-0.083460,0.078416,0.000000,-0.147008,-0.090997,0.000000
4.880000,2.371551,0.985937,-1.395761,0.444405,1.178755,0.085980,-0.775784,-0.852923,-0.180963,0.872386,-1.505324,-0.838933,2.110689,4.215323,1.512105,-0.084909,0.077493,0.000000,-0.142653,-0.092939,-0.000000
4.890000,2.375957,0.997682,-1.394910,0.436691,1.170151,0.084129,-0.766959,-0.867767,-0.189274,0.892381,-1.463587,-0.822855,1.889329,4.133039,1.703806,-0.086314,0.076552,0.000000,-0.138414,-0.094644,-0.000000
4.900000,2.380285,1.009340,-1.394079,0.429066,1.161401,0.082195,-0.757944,-0.882198,-0.197414,0.910195,-1.422646,-0.804854,1.674829,4.056088,1.896518,-0.087677,0.075594,0.000000,-0.134288,-0.096119,0.000000
4.910000,2.384538,1.020909,-1.393267,0.421533,1.152509,0.080181,-0.748762,-0.896223,-0.205365,0.925848,-1.382499,-0.784948,1.468823,3.985946,2.090063,-0.089000,0.074623,0.000000,-0.130275,-0.097369,-0.000000
4.920000,2.388716,1.032389,-1.392475,0.414092,1.143478,0.078089,-0.739434,-0.909850,-0.213107,0.939536,-1.342968,-0.763082,1.270087,3.921285,2.282969,-0.090283,0.073640,0.000000,-0.126356,-0.098413,-0.000000
4.930000,2.392820,1.043778,-1.391705,0.406745,1.134313,0.075920,-0.729978,-0.923084,-0.220620,0.951274,-1.304055,-0.739293,1.078745,3.862100,2.474372,-0.091527,0.072647,0.000000,-0.122533,-0.099256,0.000000
4.940000,2.396852,1.055075,-1.390957,0.399492,1.125018,0.073677,-0.720415,-0.935933,-0.227886,0.961136,-1.265707,-0.713602,0.894920,3.808384,2.663410,-0.092734,0.071647,0.000000,-0.118800,-0.099905,0.000000
4.950000,2.400811,1.066278,-1.390232,0.392337,1.115596,0.071363,-0.710761,-0.948400,-0.234886,0.969198,-1.227869,-0.686036,0.718734,3.760131,2.849218,-0.093904,0.070641,0.000000,-0.115152,-0.100370,0.000000
4.960000,2.404699,1.077387,-1.389530,0.385277,1.106051,0.068980,-0.701037,-0.960492,-0.241600,0.975493,-1.190522,-0.656617,0.551405,3.718243,3.030559,-0.095037,0.069631,0.000000,-0.111585,-0.100656,0.000000
4.970000,2.408517,1.088399,-1.388852,0.378316,1.096387,0.066532,-0.691257,-0.972212,-0.248012,0.980203,-1.153527,-0.625424,0.391829,3.681695,3.206991,-0.096136,0.068619,0.000000,-0.108087,-0.100783,0.000000
4.980000,2.412265,1.099314,-1.388200,0.371452,1.086608,0.064021,-0.681438,-0.983564,-0.254103,0.983356,-1.116871,-0.592496,0.239992,3.650368,3.377697,-0.097199,0.067607,0.000000,-0.104655,-0.100753,-0.000000
4.990000,2.415946,1.110131,-1.387572,0.364687,1.076717,0.061451,-0.671595,-0.994550,-0.259856,0.985029,-1.080503,-0.557892,0.095885,3.624147,3.541862,-0.098229,0.066595,0.000000,-0.101284,-0.100578,-0.000000
5.000000,2.419559,1.120848,-1.386971,0.358021,1.066718,0.058825,-0.661742,-1.005175,-0.265256,0.985299,-1.044372,-0.521683,-0.040504,3.602913,3.698667,-0.099225,0.065586,0.000000,-0.097967,-0.100264,0.000000
5.010000,2.423107,1.131465,-1.386396,0.351452,1.056615,0.056147,-0.651894,-1.015439,-0.270284,0.984213,-1.008445,-0.483894,-0.168403,3.586974,3.845987,-0.100189,0.064580,0.000000,-0.094702,-0.099819,-0.000000
5.020000,2.426589,1.141980,-1.385848,0.344983,1.046411,0.053421,-0.642062,-1.025344,-0.274929,0.981921,-0.972635,-0.444734,-0.288701,3.575735,3.984475,-0.101119,0.063580,0.000000,-0.091478,-0.099259,0.000000
5.030000,2.430007,1.152393,-1.385328,0.338611,1.036109,0.050650,-0.632259,-1.034892,-0.279175,0.978464,-0.936915,-0.404236,-0.401507,3.569029,4.113473,-0.102018,0.062585,0.000000,-0.088290,-0.098588,-0.000000
5.040000,2.433361,1.162702,-1.384835,0.332337,1.025714,0.047839,-0.622496,-1.044082,-0.283009,0.973916,-0.901240,-0.362499,-0.506926,3.566685,4.232326,-0.102885,0.061598,0.000000,-0.085134,-0.097815,0.000000
5.050000,2.436654,1.172907,-1.384371,0.326161,1.015229,0.044991,-0.612784,-1.052917,-0.286421,0.968350,-0.865568,-0.319626,-0.605066,3.568533,4.340376,-0.103721,0.060619,0.000000,-0.082005,-0.096949,0.000000
5.060000,2.439885,1.183006,-1.383935,0.320082,1.004657,0.042112,-0.603133,-1.061394,-0.289398,0.961820,-0.829856,-0.275648,-0.695563,3.574401,4.434920,-0.104526,0.059649,0.000000,-0.078896,-0.095994,0.000000
5.070000,2.443056,1.192999,-1.383529,0.314098,0.994002,0.039205,-0.593551,-1.069513,-0.291931,0.954441,-0.794067,-0.230876,-0.779053,3.584124,4.517599,-0.105299,0.058689,0.000000,-0.075801,-0.094965,-0.000000
5.080000,2.446167,1.202886,-1.383151,0.308210,0.983268,0.036275,-0.584046,-1.077275,-0.294013,0.946261,-0.758161,-0.185337,-0.855700,3.597534,4.588007,-0.106042,0.057739,0.000000,-0.072715,-0.093867,0.000000
5.090000,2.449220,1.212664,-1.382803,0.302417,0.972458,0.033326,-0.574628,-1.084676,-0.295636,0.937349,-0.722104,-0.139158,-0.925669,3.614461,4.645739,-0.106753,0.056801,0.000000,-0.069633,-0.092706,-0.000000
5.100000,2.452216,1.222335,-1.382485,0.296717,0.961575,0.030363,-0.565302,-1.091716,-0.296794,0.927770,-0.685861,-0.092466,-0.989125,3.634737,4.690387,-0.107434,0.055875,0.000000,-0.066550,-0.091490,-0.000000
5.110000,2.455155,1.231896,-1.382196,0.291111,0.950625,0.027392,-0.556075,-1.098392,-0.297483,0.917579,-0.649388,-0.045296,-1.046019,3.657926,4.719051,-0.108084,0.054961,0.000000,-0.063460,-0.090224,0.000000
5.120000,2.458038,1.241347,-1.381937,0.285596,0.939609,0.024415,-0.546952,-1.104703,-0.297699,0.906860,-0.612680,0.001981,-1.096755,3.684160,4.734125,-0.108703,0.054060,0.000000,-0.060357,-0.088919,-0.000000
5.130000,2.460867,1.250688,-1.381708,0.280171,0.928532,0.021439,-0.537939,-1.110645,-0.297443,0.895664,-0.575695,0.049341,-1.141523,3.713301,4.735511,-0.109291,0.053172,0.000000,-0.057238,-0.087579,0.000000
5.140000,2.463642,1.259917,-1.381508,0.274836,0.917397,0.018468,-0.529040,-1.116216,-0.296713,0.884049,-0.538405,0.096645,-1.180515,3.745215,4.723107,-0.109848,0.052298,0.000000,-0.054097,-0.086211,-0.000000
5.150000,2.466364,1.269035,-1.381338,0.269590,0.906209,0.015507,-0.520259,-1.121412,-0.295510,0.872073,-0.500782,0.143757,-1.213921,3.779764,4.696814,-0.110373,0.051437,0.000000,-0.050928,-0.084819,0.000000
5.160000,2.469034,1.278041,-1.381198,0.264431,0.894970,0.012559,-0.511600,-1.126230,-0.293837,0.859787,-0.462790,0.190638,-1.241888,3.816521,4.653923,-0.110867,0.050591,0.000000,-0.047727,-0.083409,-0.000000
5.170000,2.471653,1.286935,-1.381087,0.259358,0.883685,0.009631,-0.503064,-1.130667,-0.291699,0.847250,-0.424431,0.236906,-1.264656,3.855678,4.597261,-0.111328,0.049759,0.000000,-0.044489,-0.081989,0.000000
5.180000,2.474222,1.295715,-1.381005,0.254369,0.872358,0.006727,-0.494655,-1.134718,-0.289101,0.834511,-0.385669,0.282538,-1.282420,3.897133,4.527048,-0.111756,0.048941,0.000000,-0.041209,-0.080562,0.000000
5.190000,2.476741,1.304382,-1.380953,0.249464,0.860992,0.003851,-0.486375,-1.138379,-0.286051,0.821618,-0.346481,0.327402,-1.295376,3.940787,4.443504,-0.112152,0.048138,0.000000,-0.037883,-0.079133,-0.000000
5.200000,2.479211,1.312935,-1.380928,0.244641,0.849592,0.001007,-0.478223,-1.141646,-0.282556,0.808619,-0.306846,0.371365,-1.303721,3.986538,4.346849,-0.112514,0.047348,0.000000,-0.034505,-0.077707,-0.000000
5.210000,2.481634,1.321373,-1.380932,0.239899,0.838161,-0.001799,-0.470202,-1.144514,-0.278626,0.795559,-0.266741,0.414390,-1.307679,4.034214,4.234920,-0.112842,0.046573,0.000000,-0.031072,-0.076288,-0.000000
5.220000,2.484009,1.329698,-1.380964,0.235237,0.826703,-0.004564,-0.462312,-1.146979,-0.274273,0.782480,-0.226152,0.456128,-1.307413,4.083796,4.110611,-0.113135,0.045813,0.000000,-0.027578,-0.074880,-0.000000
5.230000,2.486339,1.337907,-1.381023,0.230652,0.815222,-0.007283,-0.454553,-1.149035,-0.269508,0.769424,-0.185059,0.496563,-1.303116,4.135192,3.974430,-0.113393,0.045066,0.000000,-0.024020,-0.073488,-0.000000
5.240000,2.488623,1.346002,-1.381110,0.226145,0.803723,-0.009953,-0.446923,-1.150678,-0.264346,0.756431,-0.143443,0.535579,-1.294980,4.188310,3.826890,-0.113615,0.044333,0.000000,-0.020393,-0.072116,-0.000000
5.250000,2.490862,1.353982,-1.381222,0.221714,0.792210,-0.012569,-0.439424,-1.151902,-0.258801,0.743537,-0.101287,0.573065,-1.283197,4.243059,3.668501,-0.113801,0.043614,0.000000,-0.016692,-0.070765,0.000000
5.260000,2.493057,1.361846,-1.381361,0.217356,0.780687,-0.015127,-0.432052,-1.152702,-0.252889,0.730779,-0.058590,0.608987,-1.267982,4.299684,3.497932,-0.113949,0.042909,0.000000,-0.012917,-0.069441,-0.000000
5.270000,2.495209,1.369596,-1.381525,0.213072,0.769158,-0.017625,-0.424808,-1.153072,-0.246628,0.718189,-0.015304,0.643073,-1.249502,4.357716,3.317761,-0.114059,0.042216,0.000000,-0.009059,-0.068145,-0.000000
5.280000,2.497319,1.377230,-1.381713,0.208860,0.757627,-0.020059,-0.417688,-1.153006,-0.240034,0.705800,0.028569,0.675313,-1.227947,4.417020,3.128726,-0.114130,0.041537,0.000000,-0.005116,-0.066882,0.000000
5.290000,2.499387,1.384748,-1.381926,0.204718,0.746099,-0.022425,-0.410691,-1.152499,-0.233128,0.693640,0.073041,0.705621,-1.203505,4.477466,2.931562,-0.114161,0.040870,0.000000,-0.001085,-0.065652,0.000000
5.300000,2.501413,1.392152,-1.382161,0.200646,0.734578,-0.024720,-0.403814,-1.151544,-0.225928,0.681738,0.118122,0.733920,-1.176368,4.538919,2.727006,-0.114151,0.040215,0.000000,0.003037,-0.064460,-0.000000
5.310000,2.503400,1.399440,-1.382420,0.196641,0.723070,-0.026943,-0.397055,-1.150135,-0.218456,0.670120,0.163790,0.760181,-1.146693,4.602058,2.514729,-0.114100,0.039572,0.000000,0.007249,-0.063306,-0.000000
5.320000,2.505346,1.406613,-1.382700,0.192704,0.711577,-0.029089,-0.390411,-1.148266,-0.210732,0.658811,0.210129,0.784242,-1.114704,4.665839,2.296664,-0.114006,0.038941,0.000000,0.011562,-0.062194,-0.000000
5.330000,2.507254,1.413671,-1.383001,0.188833,0.700106,-0.031157,-0.383878,-1.145930,-0.202778,0.647833,0.257108,0.806098,-1.080595,4.730032,2.073677,-0.113868,0.038320,0.000000,0.015973,-0.061125,0.000000
5.340000,2.509123,1.420615,-1.383323,0.185026,0.688660,-0.033144,-0.377453,-1.143121,-0.194617,0.637205,0.304730,0.825702,-1.044559,4.794403,1.846635,-0.113686,0.037710,0.000000,0.020486,-0.060101,-0.000000
5.350000,2.510955,1.427445,-1.383664,0.181283,0.677245,-0.035048,-0.371132,-1.139833,-0.186272,0.626947,0.352996,0.843020,-1.006789,4.858721,1.616405,-0.113458,0.037110,0.000000,0.025101,-0.059122,0.000000
5.360000,2.512749,1.434160,-1.384024,0.177603,0.665865,-0.036869,-0.364913,-1.136060,-0.177765,0.617071,0.401855,0.858029,-0.967394,4.923989,1.383699,-0.113184,0.036520,0.000000,0.029814,-0.058191,-0.000000
5.370000,2.514507,1.440762,-1.384401,0.173985,0.654526,-0.038603,-0.358790,-1.131794,-0.169119,0.607600,0.451418,0.870696,-0.926662,4.988589,1.149558,-0.112861,0.035939,0.000000,0.034638,-0.057309,-0.000000
5.380000,2.516229,1.447251,-1.384795,0.170427,0.643231,-0.040251,-0.352759,-1.127029,-0.160359,0.598542,0.501623,0.881018,-0.884796,5.052137,0.914868,-0.112490,0.035366,0.000000,0.039566,-0.056475,0.000000
5.390000,2.517916,1.453627,-1.385206,0.166929,0.631987,-0.041810,-0.346817,-1.121759,-0.151507,0.589907,0.552456,0.888995,-0.842000,5.114250,0.680515,-0.112070,0.034802,0.000000,0.044598,-0.055692,-0.000000
5.400000,2.519568,1.459891,-1.385631,0.163490,0.620797,-0.043280,-0.340960,-1.115978,-0.142586,0.581704,0.603902,0.894633,-0.798477,5.174544,0.447385,-0.111598,0.034245,0.000000,0.049732,-0.054959,-0.000000
5.410000,2.521186,1.466043,-1.386071,0.160110,0.609669,-0.044662,-0.335182,-1.109680,-0.133622,0.573935,0.655881,0.897919,-0.754326,5.234117,0.217127,-0.111075,0.033695,0.000000,0.054962,-0.054276,0.000000
5.420000,2.522770,1.472084,-1.386524,0.156787,0.598606,-0.045953,-0.329480,-1.102859,-0.124636,0.566614,0.708509,0.898951,-0.709868,5.290923,-0.010231,-0.110499,0.033153,0.000000,0.060297,-0.053645,-0.000000
5.430000,2.524322,1.478015,-1.386990,0.153520,0.587613,-0.047154,-0.323848,-1.095508,-0.115650,0.559738,0.761689,0.897727,-0.665320,5.344399,-0.233894,-0.109868,0.032616,0.000000,0.065729,-0.053063,0.000000
5.440000,2.525841,1.483837,-1.387467,0.150309,0.576697,-0.048266,-0.318283,-1.087623,-0.106689,0.553307,0.815384,0.894288,-0.620898,5.393979,-0.453072,-0.109184,0.032085,0.000000,0.071253,-0.052532,0.000000
5.450000,2.527328,1.489550,-1.387955,0.147154,0.565863,-0.049288,-0.312781,-1.079199,-0.097772,0.547319,0.869553,0.888683,-0.576819,5.439099,-0.666971,-0.108443,0.031559,0.000000,0.076865,-0.052050,0.000000
5.460000,2.528784,1.495154,-1.388452,0.144054,0.555115,-0.050222,-0.307335,-1.070231,-0.088923,0.541766,0.924092,0.880907,-0.533225,5.480649,-0.873252,-0.107646,0.031037,0.000000,0.082553,-0.051616,-0.000000
5.470000,2.530209,1.500652,-1.388959,0.141007,0.544460,-0.051067,-0.301944,-1.060716,-0.080161,0.536649,0.979082,0.871171,-0.490415,5.516432,-1.072858,-0.106792,0.030520,0.000000,0.088323,-0.051230,0.000000
5.480000,2.531604,1.506044,-1.389473,0.138014,0.533903,-0.051825,-0.296601,-1.050649,-0.071506,0.531955,1.034399,0.859475,-0.448615,5.545706,-1.265187,-0.105879,0.030007,0.000000,0.094163,-0.050890,-0.000000
5.490000,2.532970,1.511331,-1.389995,0.135075,0.523449,-0.052497,-0.291303,-1.040027,-0.062977,0.527672,1.089972,0.845894,-0.408051,5.567729,-1.449637,-0.104908,0.029497,0.000000,0.100063,-0.050594,0.000000
5.500000,2.534306,1.516513,-1.390523,0.132188,0.513104,-0.053085,-0.286046,-1.028848,-0.054594,0.523789,1.145726,0.830510,-0.368948,5.581757,-1.625602,-0.103878,0.028989,0.000000,0.106014,-0.050341,-0.000000
5.510000,2.535614,1.521593,-1.391057,0.129354,0.502874,-0.053590,-0.280826,-1.017112,-0.046374,0.520288,1.201532,0.813330,-0.331542,5.588214,-1.790409,-0.102788,0.028484,0.000000,0.112003,-0.050129,-0.000000
5.520000,2.536893,1.526571,-1.391595,0.126572,0.492764,-0.054013,-0.275639,-1.004818,-0.038333,0.517152,1.257407,0.794641,-0.296048,5.585049,-1.945780,-0.101638,0.027981,0.000000,0.118027,-0.049955,-0.000000
5.530000,2.538145,1.531449,-1.392137,0.123841,0.482779,-0.054357,-0.270482,-0.991965,-0.030486,0.514360,1.313198,0.774447,-0.262689,5.571378,-2.091366,-0.100427,0.027480,0.000000,0.124069,-0.049816,-0.000000
5.540000,2.539370,1.536227,-1.392682,0.121162,0.472926,-0.054624,-0.265351,-0.978554,-0.022848,0.511890,1.368796,0.752847,-0.231689,5.546316,-2.226818,-0.099156,0.026980,0.000000,0.130117,-0.049711,0.000000
5.550000,2.540569,1.540908,-1.393229,0.118534,0.463210,-0.054815,-0.260243,-0.964590,-0.015433,0.509718,1.424083,0.729945,-0.203273,5.508977,-2.351787,-0.097825,0.026481,0.000000,0.136156,-0.049636,-0.000000
5.560000,2.541741,1.545492,-1.393778,0.115957,0.453636,-0.054933,-0.255156,-0.950075,-0.008254,0.507820,1.478906,0.705758,-0.177785,5.459131,-2.463663,-0.096433,0.025982,0.000000,0.142168,-0.049589,-0.000000
5.570000,2.542888,1.549981,-1.394327,0.113431,0.444210,-0.054981,-0.250086,-0.935014,-0.001322,0.506157,1.533190,0.680608,-0.155314,5.395159,-2.564634,-0.094982,0.025484,0.000000,0.148142,-0.049564,0.000000
5.580000,2.544010,1.554377,-1.394877,0.110955,0.434938,-0.054960,-0.245032,-0.919413,0.005355,0.504703,1.586759,0.654502,-0.136071,5.316095,-2.654626,-0.093471,0.024986,0.000000,0.154059,-0.049559,-0.000000
5.590000,2.545107,1.558680,-1.395426,0.108530,0.425824,-0.054874,-0.239991,-0.903281,0.011765,0.503424,1.639458,0.627552,-0.120263,5.220975,-2.733569,-0.091901,0.024488,0.000000,0.159898,-0.049570,-0.000000
5.600000,2.546181,1.562894,-1.395974,0.106155,0.416874,-0.054726,-0.234963,-0.886627,0.017903,0.502286,1.691122,0.599868,-0.108101,5.108833,-2.801389,-0.090273,0.023991,0.000000,0.165642,-0.049594,0.000000
5.610000,2.547231,1.567018,-1.396521,0.103831,0.408093,-0.054517,-0.229945,-0.869463,0.023760,0.501256,1.741571,0.571479,-0.099956,4.978805,-2.855923,-0.088588,0.023492,0.000000,0.171270,-0.049626,0.000000
5.620000,2.548258,1.571056,-1.397064,0.101556,0.399486,-0.054252,-0.224938,-0.851801,0.029331,0.500280,1.790630,0.542693,-0.095856,4.829813,-2.899446,-0.086848,0.022994,0.000000,0.176759,-0.049660,-0.000000
5.630000,2.549262,1.575009,-1.397605,0.099332,0.391059,-0.053932,-0.219940,-0.833656,0.034612,0.499325,1.838101,0.513526,-0.095990,4.660879,-2.932139,-0.085054,0.022496,0.000000,0.182088,-0.049692,0.000000
5.640000,2.550244,1.578878,-1.398143,0.097158,0.382815,-0.053560,-0.214951,-0.815045,0.039601,0.498346,1.883778,0.484085,-0.100548,4.471027,-2.954188,-0.083207,0.021997,0.000000,0.187232,-0.049719,0.000000
5.650000,2.551205,1.582666,-1.398676,0.095033,0.374759,-0.053141,-0.209973,-0.795987,0.044294,0.497299,1.927448,0.454477,-0.109718,4.259277,-2.965774,-0.081310,0.021498,0.000000,0.192168,-0.049734,-0.000000
5.660000,2.552145,1.586374,-1.399206,0.092958,0.366896,-0.052675,-0.205006,-0.776503,0.048689,0.496130,1.968889,0.424740,-0.123561,4.024614,-2.965466,-0.079364,0.020999,0.000000,0.196870,-0.049733,-0.000000
5.670000,2.553065,1.590004,-1.399730,0.090933,0.359230,-0.052168,-0.200051,-0.756617,0.052789,0.494805,2.007863,0.395129,-0.142412,3.766104,-2.955261,-0.077373,0.020500,0.000000,0.201310,-0.049711,-0.000000
5.680000,2.553964,1.593559,-1.400249,0.088957,0.351765,-0.051621,-0.195110,-0.736355,0.056592,0.493265,2.044128,0.365667,-0.166476,3.482775,-2.935539,-0.075339,0.020002,0.000000,0.205463,-0.049662,0.000000
5.690000,2.554844,1.597040,-1.400762,0.087031,0.344505,-0.051037,-0.190186,-0.715744,0.060103,0.491457,2.077432,0.336448,-0.195959,3.173653,-2.906682,-0.073265,0.019504,0.000000,0.209300,-0.049581,-0.000000
5.700000,2.555705,1.600450,-1.401269,0.085153,0.337451,-0.050420,-0.185282,-0.694817,0.063322,0.489327,2.107512,0.307562,-0.231066,2.837767,-2.869072,-0.071154,0.019007,0.000000,0.212792,-0.049461,-0.000000
