time,x,y,z,vx,vy,vz,ax,ay,az,jx,jy,jz,sx,sy,sz,roll,pitch,yaw,p,q,r
0.000000,-1.987418,-1.335270,-1.413941,-0.003806,-0.018011,-0.005145,-0.209067,0.768534,0.065140,4.225075,-24.921734,-0.578975,-43.586381,693.713506,42.088612,0.078685,0.021451,0.000000,-2.544963,-0.433299,0.000000
0.010000,-1.987465,-1.335416,-1.413990,-0.005692,-0.011461,-0.004516,-0.168925,0.552245,0.061374,3.810239,-18.507383,-0.182308,-39.424423,590.903878,37.295856,0.056580,0.017326,0.000000,-1.892779,-0.390430,0.000000
0.020000,-1.987530,-1.335505,-1.414032,-0.007198,-0.006769,-0.003906,-0.132728,0.395131,0.061339,3.435727,-13.069588,0.167946,-35.520399,498.315066,32.804118,0.040506,0.013614,0.000000,-1.337441,-0.351842,0.000000
0.030000,-1.987608,-1.335555,-1.414068,-0.008359,-0.003392,-0.003278,-0.100085,0.287930,0.064588,3.098994,-8.508760,0.474744,-31.867503,415.422724,28.603140,0.029535,0.010270,0.000000,-0.870763,-0.317323,0.000000
0.040000,-1.987696,-1.335576,-1.414097,-0.009210,-0.000872,-0.002604,-0.070630,0.222348,0.070699,2.797562,-4.730559,0.740943,-28.458928,341.702505,24.682663,0.022825,0.007252,0.000000,-0.483669,-0.286603,-0.000000
0.050000,-1.987792,-1.335574,-1.414119,-0.009781,0.001169,-0.001856,-0.044024,0.191008,0.079280,2.529023,-1.645884,0.969298,-25.287869,276.630061,21.032429,0.019627,0.004524,0.000000,-0.167099,-0.259395,-0.000000
0.060000,-1.987891,-1.335553,-1.414134,-0.010099,0.003040,-0.001012,-0.019948,0.187399,0.089967,2.291036,0.829120,1.162459,-22.347519,219.681045,17.642179,0.019277,0.002052,0.000000,0.087582,-0.235412,0.000000
0.070000,-1.987993,-1.335513,-1.414139,-0.010187,0.004990,-0.000051,0.001891,0.205821,0.102421,2.081326,2.773067,1.322974,-19.631073,170.331111,14.501654,0.021199,-0.000195,0.000000,0.288419,-0.214381,-0.000000
0.080000,-1.988094,-1.335453,-1.414134,-0.010067,0.007214,0.001042,0.021766,0.241335,0.116326,1.897691,4.259325,1.453290,-17.131724,128.055912,11.600595,0.024891,-0.002245,0.000000,0.442838,-0.196041,0.000000
0.090000,-1.988193,-1.335368,-1.414118,-0.009758,0.009860,0.002279,0.039925,0.289709,0.131394,1.737991,5.356020,1.555750,-14.842667,92.331100,8.928744,0.029924,-0.004125,0.000000,0.557672,-0.180150,-0.000000
0.100000,-1.988289,-1.335254,-1.414088,-0.009274,0.013039,0.003672,0.056598,0.347367,0.147356,1.600159,6.126033,1.632595,-12.757094,62.632329,6.475842,0.035933,-0.005857,0.000000,0.639193,-0.166479,-0.000000
0.110000,-1.988378,-1.335105,-1.414044,-0.008630,0.016828,0.005229,0.071994,0.411334,0.163967,1.482194,6.627005,1.685962,-10.868201,38.435251,4.231630,0.042616,-0.007463,0.000000,0.693143,-0.154814,0.000000
0.120000,-1.988461,-1.334915,-1.413983,-0.007838,0.021278,0.006953,0.086302,0.479186,0.181004,1.382162,6.911330,1.717889,-9.169181,19.215520,2.185850,0.049722,-0.008962,0.000000,0.724752,-0.144950,0.000000
0.130000,-1.988535,-1.334677,-1.413904,-0.006907,0.026418,0.008849,0.099691,0.548996,0.198260,1.298200,7.026159,1.730307,-7.653227,4.448789,0.328243,0.057052,-0.010371,0.000000,0.738749,-0.136694,0.000000
0.140000,-1.988599,-1.334384,-1.413806,-0.005846,0.032260,0.010919,0.112314,0.619284,0.215551,1.228510,7.013401,1.725047,-6.313535,-6.389289,-1.351449,0.064452,-0.011706,0.000000,0.739361,-0.129861,0.000000
0.150000,-1.988651,-1.334029,-1.413685,-0.004663,0.038802,0.013160,0.124303,0.688962,0.232708,1.171364,6.909721,1.703836,-5.143297,-13.823062,-2.863487,0.071807,-0.012978,0.000000,0.730310,-0.124273,0.000000
0.160000,-1.988691,-1.333606,-1.413542,-0.003362,0.046035,0.015572,0.135777,0.757281,0.249580,1.125102,6.746540,1.668301,-4.135708,-18.376875,-4.218127,0.079037,-0.014201,0.000000,0.714805,-0.119762,0.000000
0.170000,-1.988718,-1.333107,-1.413373,-0.001949,0.053942,0.018150,0.146836,0.823782,0.266031,1.088131,6.550035,1.619964,-3.283962,-20.575077,-5.425629,0.086091,-0.015384,0.000000,0.695533,-0.116164,-0.000000
0.180000,-1.988730,-1.332525,-1.413178,-0.000426,0.062503,0.020891,0.157566,0.888241,0.281941,1.058926,6.341142,1.560245,-2.581252,-20.942014,-6.496252,0.092942,-0.016535,0.000000,0.674658,-0.113323,-0.000000
0.190000,-1.988726,-1.331854,-1.412955,0.001202,0.071699,0.023787,0.168036,0.950616,0.297203,1.036031,6.135551,1.490461,-2.020773,-20.002034,-7.440253,0.099584,-0.017662,0.000000,0.653809,-0.111089,-0.000000
0.200000,-1.988706,-1.331089,-1.412702,0.002934,0.081509,0.026832,0.178303,1.010998,0.311721,1.018059,5.943710,1.411828,-1.595718,-18.279482,-8.267893,0.106022,-0.018770,0.000000,0.634075,-0.109318,0.000000
0.210000,-1.988667,-1.330223,-1.412418,0.004765,0.091865,0.030018,0.188477,1.071353,0.325419,1.009977,5.936605,1.325971,-1.458118,-20.485994,-9.002409,0.112459,-0.019869,0.000000,0.633265,-0.108531,0.000000
0.220000,-1.988610,-1.329250,-1.412101,0.006700,0.102872,0.033337,0.198505,1.129661,0.338217,0.995646,5.721745,1.232684,-1.422881,-22.445899,-9.639491,0.118679,-0.020954,0.000000,0.610519,-0.107039,-0.000000
0.230000,-1.988533,-1.328163,-1.411751,0.008735,0.114451,0.036780,0.208390,1.185726,0.350053,0.981266,5.488470,1.133477,-1.463751,-24.170817,-10.187808,0.124662,-0.022025,0.000000,0.585565,-0.105491,-0.000000
0.240000,-1.988435,-1.326959,-1.411365,0.010868,0.126579,0.040335,0.218128,1.239377,0.360870,0.966205,5.239073,1.029195,-1.554474,-25.672364,-10.656030,0.130384,-0.023080,0.000000,0.558662,-0.103823,0.000000
0.250000,-1.988315,-1.325630,-1.410944,0.013097,0.139230,0.043993,0.227710,1.290461,0.370622,0.950097,4.975729,0.920595,-1.668793,-26.962159,-11.052826,0.135829,-0.024119,0.000000,0.530060,-0.101997,0.000000
0.260000,-1.988173,-1.324172,-1.410485,0.015424,0.152378,0.047743,0.237048,1.338879,0.379283,0.925685,4.703024,0.809574,-1.599793,-28.115660,-11.417840,0.140984,-0.025130,0.000000,0.500283,-0.099256,0.000000
0.270000,-1.988006,-1.322581,-1.409989,0.017840,0.165997,0.051575,0.246226,1.384487,0.386803,0.910059,4.416920,0.693814,-1.524000,-29.072828,-11.724975,0.145830,-0.026124,0.000000,0.468890,-0.097388,-0.000000
0.280000,-1.987816,-1.320851,-1.409453,0.020348,0.180058,0.055476,0.255252,1.427189,0.393150,0.895242,4.122210,0.575251,-1.437281,-29.837463,-11.979106,0.150358,-0.027099,0.000000,0.436428,-0.095562,0.000000
0.290000,-1.987599,-1.318978,-1.408879,0.022945,0.194531,0.059434,0.264134,1.466908,0.398300,0.881364,3.820800,0.454392,-1.335502,-30.413366,-12.185111,0.154556,-0.028057,0.000000,0.403125,-0.093794,-0.000000
0.300000,-1.987356,-1.316959,-1.408265,0.025630,0.209386,0.063437,0.272883,1.503589,0.402232,0.868596,3.514559,0.331693,-1.214529,-30.804337,-12.347866,0.158418,-0.028998,0.000000,0.369201,-0.092104,-0.000000
0.310000,-1.987086,-1.314789,-1.407610,0.028402,0.224593,0.067474,0.281489,1.537168,0.404941,0.855105,3.203349,0.208639,-1.018559,-30.964483,-12.499441,0.161937,-0.029921,0.000000,0.334690,-0.090305,-0.000000
0.320000,-1.986788,-1.312466,-1.406915,0.031260,0.240120,0.071532,0.289992,1.567653,0.406400,0.845988,2.893621,0.083041,-0.801455,-30.953384,-12.614190,0.165112,-0.030829,0.000000,0.300240,-0.088925,0.000000
0.330000,-1.986461,-1.309986,-1.406179,0.034202,0.255936,0.075598,0.298416,1.595044,0.406598,0.839139,2.584820,-0.043527,-0.565409,-30.780926,-12.693660,0.167942,-0.031724,0.000000,0.265838,-0.087749,-0.000000
0.340000,-1.986104,-1.307347,-1.405403,0.037228,0.272010,0.079660,0.306783,1.619358,0.405528,0.834736,2.278508,-0.170720,-0.312614,-30.456993,-12.739396,0.170429,-0.032609,0.000000,0.231670,-0.086798,-0.000000
0.350000,-1.985716,-1.304545,-1.404586,0.040338,0.288313,0.083704,0.315119,1.640627,0.403183,0.832935,1.976152,-0.298208,-0.045263,-29.991473,-12.752946,0.172577,-0.033487,0.000000,0.197909,-0.086088,-0.000000
0.360000,-1.985297,-1.301580,-1.403729,0.043530,0.304813,0.087719,0.323450,1.658896,0.399571,0.833737,1.678896,-0.424949,0.237856,-29.388667,-12.754244,0.174389,-0.034358,0.000000,0.164708,-0.085624,-0.000000
0.370000,-1.984845,-1.298448,-1.402832,0.046807,0.321481,0.091691,0.331804,1.674227,0.394685,0.837573,1.388533,-0.552367,0.530727,-28.664729,-12.724198,0.175873,-0.035226,0.000000,0.132239,-0.085445,0.000000
0.380000,-1.984360,-1.295150,-1.401896,0.050167,0.338288,0.095608,0.340211,1.686693,0.388526,0.844375,1.105970,-0.679326,0.830740,-27.830227,-12.662103,0.177037,-0.036094,0.000000,0.100629,-0.085547,0.000000
0.390000,-1.983841,-1.291682,-1.400920,0.053611,0.355206,0.099457,0.348701,1.696376,0.381101,0.854203,0.832262,-0.805500,1.135286,-26.895729,-12.567253,0.177889,-0.036965,0.000000,0.070004,-0.085937,-0.000000
0.400000,-1.983288,-1.288045,-1.399907,0.057141,0.372207,0.103226,0.357305,1.703371,0.372419,0.867088,0.568354,-0.930559,1.441753,-25.871806,-12.438943,0.178441,-0.037842,0.000000,0.040478,-0.086619,0.000000
0.410000,-1.982698,-1.284238,-1.398856,0.060758,0.389264,0.106902,0.366055,1.707782,0.362496,0.883193,0.315373,-1.054013,1.743567,-24.776224,-12.280321,0.178703,-0.038727,0.000000,0.012184,-0.087610,0.000000
0.420000,-1.982072,-1.280260,-1.397769,0.064463,0.406354,0.110472,0.374979,1.709716,0.351345,0.902127,0.073381,-1.175876,2.042569,-23.611473,-12.086358,0.178688,-0.039623,0.000000,-0.014863,-0.088868,0.000000
0.430000,-1.981409,-1.276111,-1.396647,0.068258,0.423451,0.113924,0.384107,1.709289,0.338985,0.924028,-0.156658,-1.295618,2.336633,-22.387242,-11.855878,0.178410,-0.040534,0.000000,-0.040549,-0.090406,0.000000
0.440000,-1.980707,-1.271791,-1.395491,0.072146,0.440532,0.117248,0.393469,1.706624,0.325441,0.948836,-0.374198,-1.412868,2.623634,-21.113218,-11.587704,0.177882,-0.041461,0.000000,-0.064805,-0.092220,-0.000000
0.450000,-1.979966,-1.267300,-1.394302,0.076128,0.457576,0.120429,0.403093,1.701849,0.310738,0.976470,-0.578788,-1.527243,2.901448,-19.799089,-11.280660,0.177119,-0.042409,0.000000,-0.087575,-0.094301,0.000000
0.460000,-1.979184,-1.262640,-1.393083,0.080208,0.474562,0.123459,0.413010,1.695099,0.294903,1.007042,-0.769548,-1.638668,3.162518,-18.467920,-10.925486,0.176136,-0.043379,0.000000,-0.108765,-0.096657,0.000000
0.470000,-1.978361,-1.257809,-1.391834,0.084389,0.491472,0.126324,0.423243,1.686502,0.277977,1.039920,-0.947475,-1.745979,3.410817,-17.114384,-10.530078,0.174949,-0.044373,0.000000,-0.128455,-0.099228,-0.000000
0.480000,-1.977496,-1.252810,-1.390557,0.088674,0.508287,0.129015,0.433817,1.676195,0.259998,1.075211,-1.111788,-1.849134,3.644885,-15.746531,-10.094251,0.173573,-0.045395,0.000000,-0.146567,-0.102022,-0.000000
0.490000,-1.976587,-1.247644,-1.389254,0.093067,0.524991,0.131520,0.444755,1.664312,0.241009,1.112765,-1.262385,-1.947729,3.863263,-14.372411,-9.617816,0.172023,-0.046445,0.000000,-0.163084,-0.105025,-0.000000
0.500000,-1.975634,-1.242311,-1.387927,0.097571,0.541568,0.133832,0.456079,1.650993,0.221060,1.152419,-1.399242,-2.041355,4.064491,-13.000075,-9.100589,0.170316,-0.047527,0.000000,-0.178004,-0.108219,0.000000
0.510000,-1.974635,-1.236813,-1.386578,0.102190,0.558006,0.135939,0.467812,1.636381,0.200194,1.194209,-1.521717,-2.130163,4.241669,-11.655293,-8.528266,0.168469,-0.048642,0.000000,-0.191269,-0.111608,0.000000
0.520000,-1.973590,-1.231151,-1.385209,0.106928,0.574292,0.137833,0.479969,1.620603,0.178476,1.237431,-1.631610,-2.212419,4.399445,-10.326225,-7.916505,0.166496,-0.049792,0.000000,-0.203039,-0.115126,-0.000000
0.530000,-1.972496,-1.225328,-1.383822,0.111791,0.590414,0.139506,0.492565,1.603792,0.155967,1.282130,-1.728314,-2.288367,4.537024,-9.018750,-7.266847,0.164413,-0.050978,0.000000,-0.213268,-0.118777,0.000000
0.540000,-1.971354,-1.219344,-1.382420,0.116781,0.606365,0.140950,0.505615,1.586080,0.132731,1.328101,-1.812076,-2.357635,4.653614,-7.738748,-6.580835,0.162236,-0.052200,0.000000,-0.221986,-0.122541,0.000000
0.550000,-1.970160,-1.213201,-1.381004,0.121905,0.622134,0.142158,0.519131,1.567593,0.108838,1.375130,-1.883200,-2.419867,4.748421,-6.492099,-5.860010,0.159978,-0.053461,0.000000,-0.229230,-0.126399,0.000000
0.560000,-1.968915,-1.206902,-1.379577,0.127165,0.637714,0.143125,0.533123,1.548465,0.084352,1.423179,-1.941259,-2.475264,4.815990,-5.304626,-5.092280,0.157657,-0.054761,0.000000,-0.234975,-0.130348,0.000000
0.570000,-1.967617,-1.200447,-1.378142,0.132569,0.653101,0.143844,0.547596,1.528807,0.059358,1.471582,-1.988545,-2.522221,4.860761,-4.159824,-4.294491,0.155283,-0.056101,0.000000,-0.239440,-0.134330,-0.000000
0.580000,-1.966263,-1.193840,-1.376701,0.138119,0.668289,0.144310,0.562556,1.508732,0.033935,1.520317,-2.024609,-2.561064,4.882511,-3.061131,-3.469853,0.152872,-0.057481,0.000000,-0.242602,-0.138343,0.000000
0.590000,-1.964854,-1.187082,-1.375257,0.143821,0.683274,0.144521,0.578003,1.488350,0.008165,1.569154,-2.049932,-2.591539,4.881016,-2.011984,-2.621577,0.150436,-0.058901,0.000000,-0.244521,-0.142370,-0.000000
0.600000,-1.963386,-1.180175,-1.373812,0.149681,0.698055,0.144473,0.593938,1.467767,-0.017867,1.617859,-2.065026,-2.613427,4.856054,-1.015821,-1.752874,0.147986,-0.060361,0.000000,-0.245262,-0.146391,0.000000
0.610000,-1.961860,-1.173122,-1.372368,0.155702,0.712629,0.144163,0.610360,1.447090,-0.044078,1.666327,-2.069677,-2.626869,4.804105,-0.095274,-0.858627,0.145535,-0.061861,0.000000,-0.244824,-0.150398,-0.000000
0.620000,-1.960272,-1.165924,-1.370929,0.161889,0.726997,0.143591,0.627263,1.426404,-0.070374,1.714010,-2.066266,-2.630929,4.728648,0.767763,0.048605,0.143093,-0.063401,0.000000,-0.243446,-0.154349,0.000000
0.630000,-1.958621,-1.158583,-1.369497,0.168248,0.741158,0.142756,0.644638,1.405793,-0.096666,1.760822,-2.054517,-2.625868,4.629863,1.572203,0.964591,0.140669,-0.064979,0.000000,-0.241121,-0.158238,0.000000
0.640000,-1.956906,-1.151101,-1.368075,0.174784,0.755113,0.141658,0.662475,1.385339,-0.122861,1.806530,-2.035021,-2.611622,4.507934,2.316957,1.885098,0.138273,-0.066597,0.000000,-0.237924,-0.162049,-0.000000
0.650000,-1.955125,-1.143481,-1.366665,0.181499,0.768865,0.140299,0.680764,1.365116,-0.148868,1.850904,-2.008380,-2.588165,4.363040,3.000938,2.805897,0.135913,-0.068251,0.000000,-0.233928,-0.165765,-0.000000
0.660000,-1.953276,-1.135724,-1.365270,0.188400,0.782416,0.138682,0.699489,1.345200,-0.174594,1.893786,-1.974597,-2.555556,4.193588,3.607620,3.723747,0.133598,-0.069943,0.000000,-0.229150,-0.169378,0.000000
0.670000,-1.951356,-1.127833,-1.363892,0.195491,0.795770,0.136809,0.718633,1.325644,-0.199948,1.934781,-1.935742,-2.513762,4.001753,4.153244,4.633305,0.131332,-0.071669,0.000000,-0.223806,-0.172857,-0.000000
0.680000,-1.949365,-1.119810,-1.362535,0.202774,0.808930,0.134684,0.738178,1.306502,-0.224839,1.973747,-1.891733,-2.462932,3.787931,4.638613,5.530218,0.129123,-0.073429,0.000000,-0.217901,-0.176194,0.000000
0.690000,-1.947300,-1.111655,-1.361200,0.210255,0.821902,0.132314,0.758101,1.287824,-0.249177,2.010467,-1.843168,-2.403214,3.552522,5.064529,6.410133,0.126976,-0.075222,0.000000,-0.211507,-0.179376,-0.000000
0.700000,-1.945159,-1.103372,-1.359889,0.217938,0.834689,0.129703,0.778379,1.269652,-0.272875,2.044727,-1.790638,-2.334801,3.295925,5.431795,7.268698,0.124895,-0.077045,0.000000,-0.204692,-0.182389,-0.000000
0.710000,-1.942941,-1.094962,-1.358606,0.225824,0.847296,0.126859,0.798987,1.252027,-0.295843,2.076342,-1.734342,-2.257699,3.017897,5.731541,8.095821,0.122884,-0.078898,0.000000,-0.197486,-0.185223,-0.000000
0.720000,-1.940642,-1.086427,-1.357353,0.233918,0.859731,0.123789,0.819896,1.234974,-0.318002,2.105046,-1.675762,-2.172726,2.719555,5.975428,8.893592,0.120946,-0.080777,0.000000,-0.190047,-0.187855,-0.000000
0.730000,-1.938262,-1.077768,-1.356131,0.242223,0.871998,0.120502,0.841077,1.218519,-0.339271,2.130667,-1.615013,-2.079937,2.401377,6.165441,9.658360,0.119083,-0.082682,0.000000,-0.182392,-0.190277,-0.000000
0.740000,-1.935797,-1.068988,-1.354943,0.250741,0.884103,0.117006,0.862499,1.202679,-0.359575,2.153009,-1.552626,-1.979681,2.063840,6.303569,10.386476,0.117299,-0.084609,0.000000,-0.174580,-0.192475,-0.000000
0.750000,-1.933246,-1.060087,-1.353792,0.259474,0.896054,0.113313,0.884126,1.187470,-0.378841,2.171881,-1.489108,-1.872342,1.707419,6.391798,11.074291,0.115592,-0.086557,0.000000,-0.166666,-0.194437,0.000000
0.760000,-1.930607,-1.051067,-1.352678,0.268424,0.907855,0.109433,0.905924,1.172901,-0.396996,2.187110,-1.424810,-1.757939,1.332248,6.428590,11.707980,0.113966,-0.088523,0.000000,-0.158685,-0.196153,0.000000
0.770000,-1.927877,-1.041930,-1.351604,0.277593,0.919514,0.105377,0.927855,1.158974,-0.413980,2.198481,-1.360531,-1.637883,0.939190,6.419890,12.295313,0.112418,-0.090505,0.000000,-0.150730,-0.197600,-0.000000
0.780000,-1.925054,-1.032677,-1.350571,0.286981,0.931036,0.101158,0.949880,1.145689,-0.429735,2.205836,-1.296556,-1.512195,0.528764,6.368116,12.833886,0.110951,-0.092499,0.000000,-0.142826,-0.198769,0.000000
0.790000,-1.922137,-1.023310,-1.349581,0.296590,0.942430,0.096787,0.971958,1.133041,-0.444206,2.209001,-1.233304,-1.381375,0.101488,6.275687,13.321295,0.109562,-0.094504,0.000000,-0.135015,-0.199646,-0.000000
0.800000,-1.919122,-1.013829,-1.348636,0.306420,0.953699,0.092278,0.994046,1.121019,-0.457347,2.207811,-1.171169,-1.245948,-0.342117,6.145022,13.755136,0.108250,-0.096515,0.000000,-0.127339,-0.200217,-0.000000
0.810000,-1.916007,-1.004236,-1.347736,0.316471,0.964852,0.087644,1.016100,1.109612,-0.469107,2.202145,-1.110577,-1.105991,-0.802540,5.979913,14.121177,0.107014,-0.098531,0.000000,-0.119835,-0.200475,0.000000
0.820000,-1.912792,-0.994532,-1.346883,0.326742,0.975894,0.082900,1.038073,1.098802,-0.479455,2.191754,-1.051744,-0.963186,-1.278133,5.781238,14.430289,0.105853,-0.100547,0.000000,-0.112535,-0.200387,-0.000000
0.830000,-1.909472,-0.984719,-1.346078,0.337232,0.986830,0.078060,1.059919,1.088570,-0.488361,2.176534,-0.995057,-0.817578,-1.768251,5.551247,14.681518,0.104763,-0.102560,0.000000,-0.105472,-0.199945,-0.000000
0.840000,-1.906046,-0.974796,-1.345322,0.347940,0.997667,0.073138,1.081587,1.078893,-0.495799,2.156343,-0.940816,-0.669752,-2.272254,5.292192,14.873906,0.103742,-0.104567,0.000000,-0.098676,-0.199134,0.000000
0.850000,-1.902512,-0.964766,-1.344616,0.358863,1.008410,0.068149,1.103029,1.069744,-0.501751,2.131045,-0.889302,-0.520299,-2.789500,5.006323,15.006498,0.102788,-0.106563,0.000000,-0.092172,-0.197937,-0.000000
0.860000,-1.898868,-0.954628,-1.343959,0.369999,1.019063,0.063108,1.124192,1.061095,-0.506197,2.100604,-0.840928,-0.369381,-3.321698,4.699846,15.067144,0.101898,-0.108545,0.000000,-0.085997,-0.196352,0.000000
0.870000,-1.895112,-0.944385,-1.343354,0.381346,1.029633,0.058030,1.145023,1.052915,-0.509137,2.064677,-0.795558,-0.218658,-3.865566,4.370572,15.067453,0.101067,-0.110509,0.000000,-0.080148,-0.194329,0.000000
0.880000,-1.891241,-0.934036,-1.342799,0.392899,1.040123,0.052930,1.165467,1.045172,-0.510571,2.023257,-0.753587,-0.068232,-4.420173,4.020268,15.007840,0.100294,-0.112450,0.000000,-0.074657,-0.191866,-0.000000
0.890000,-1.887253,-0.923582,-1.342295,0.404654,1.050538,0.047824,1.185469,1.037831,-0.510505,1.976241,-0.715217,0.081300,-4.984587,3.650701,14.888720,0.099573,-0.114364,0.000000,-0.069546,-0.188946,-0.000000
0.900000,-1.883147,-0.913025,-1.341842,0.416606,1.060881,0.042725,1.204973,1.030855,-0.508950,1.923536,-0.680631,0.229346,-5.557880,3.263636,14.710506,0.098901,-0.116246,0.000000,-0.064831,-0.185550,0.000000
0.910000,-1.878920,-0.902365,-1.341440,0.428751,1.071156,0.037649,1.223922,1.024204,-0.505921,1.865207,-0.650157,0.375681,-6.142903,2.864882,14.464360,0.098275,-0.118092,0.000000,-0.060542,-0.181679,0.000000
0.920000,-1.874571,-0.891602,-1.341089,0.441083,1.081366,0.032611,1.242257,1.017839,-0.501446,1.800825,-0.623562,0.518856,-6.734479,2.451669,14.161083,0.097689,-0.119896,0.000000,-0.056666,-0.177271,0.000000
0.930000,-1.870098,-0.880738,-1.340788,0.453594,1.091514,0.027625,1.259919,1.011719,-0.495555,1.730500,-0.601167,0.658718,-7.331215,2.025269,13.802225,0.097140,-0.121653,0.000000,-0.053232,-0.172329,0.000000
0.940000,-1.865499,-0.869772,-1.340536,0.466279,1.101601,0.022705,1.276848,1.005801,-0.488284,1.654188,-0.583097,0.794720,-7.931717,1.586952,13.389332,0.096623,-0.123357,0.000000,-0.050253,-0.166837,-0.000000
0.950000,-1.860772,-0.858706,-1.340334,0.479128,1.111630,0.017864,1.292983,1.000042,-0.479675,1.571858,-0.569464,0.926329,-8.534590,1.137991,12.923954,0.096133,-0.125003,0.000000,-0.047743,-0.160777,0.000000
0.960000,-1.855916,-0.847540,-1.340179,0.492135,1.121602,0.013116,1.308266,0.994396,-0.469771,1.483669,-0.560457,1.053307,-9.142889,0.681895,12.400611,0.095666,-0.126586,0.000000,-0.045722,-0.154153,-0.000000
0.970000,-1.850929,-0.836274,-1.340071,0.505291,1.131518,0.008473,1.322636,0.988817,-0.458627,1.389202,-0.555953,1.174494,-9.750227,0.217424,11.828738,0.095217,-0.128098,0.000000,-0.044186,-0.146902,0.000000
0.980000,-1.845809,-0.824910,-1.340009,0.518585,1.141379,0.003947,1.336030,0.983261,-0.446301,1.288674,-0.556133,1.289728,-10.354667,-0.254425,11.210744,0.094781,-0.129535,0.000000,-0.043154,-0.139031,0.000000
0.990000,-1.840557,-0.813447,-1.339992,0.532008,1.151184,-0.000450,1.348389,0.977679,-0.432854,1.182125,-0.561063,1.398563,-10.954268,-0.732655,10.549038,0.094352,-0.130889,0.000000,-0.042638,-0.130529,-0.000000
1.000000,-1.835169,-0.801886,-1.340018,0.545549,1.160932,-0.004707,1.359653,0.972024,-0.418353,1.069611,-0.570804,1.500572,-11.547092,-1.216268,9.846028,0.093926,-0.132155,0.000000,-0.042647,-0.121383,-0.000000
1.010000,-1.829645,-0.790228,-1.340085,0.559197,1.170624,-0.008814,1.369764,0.966247,-0.402864,0.951362,-0.585389,1.595559,-12.135003,-1.704630,9.098929,0.093498,-0.133326,0.000000,-0.043190,-0.111601,0.000000
1.020000,-1.823985,-0.778474,-1.340193,0.572940,1.180257,-0.012761,1.378661,0.960300,-0.386467,0.827118,-0.604891,1.682662,-12.711794,-2.196335,8.315980,0.093061,-0.134395,0.000000,-0.044283,-0.101135,-0.000000
1.030000,-1.818186,-0.766623,-1.340340,0.586766,1.189829,-0.016540,1.386287,0.954133,-0.369238,0.697172,-0.629323,1.761770,-13.275062,-2.690342,7.500223,0.092610,-0.135355,0.000000,-0.045931,-0.089997,0.000000
1.040000,-1.812249,-0.754678,-1.340523,0.600661,1.199338,-0.020143,1.392586,0.947697,-0.351259,0.561670,-0.658702,1.832568,-13.822403,-3.185609,6.654704,0.092140,-0.136200,0.000000,-0.048143,-0.078184,0.000000
1.050000,-1.806173,-0.742637,-1.340742,0.614613,1.208782,-0.023563,1.397502,0.940942,-0.332615,0.420785,-0.693036,1.894775,-14.351413,-3.681092,5.782466,0.091645,-0.136923,0.000000,-0.050926,-0.065698,-0.000000
1.060000,-1.799957,-0.730502,-1.340994,0.628607,1.218156,-0.026794,1.400985,0.933820,-0.313391,0.274766,-0.732221,1.948292,-14.861071,-4.178296,4.882656,0.091120,-0.137517,0.000000,-0.054276,-0.052546,-0.000000
1.070000,-1.793600,-0.718274,-1.341277,0.642628,1.227457,-0.029829,1.402981,0.926281,-0.293680,0.123703,-0.776481,1.992535,-15.347420,-4.673321,3.962694,0.090558,-0.137976,0.000000,-0.058223,-0.038718,0.000000
1.080000,-1.787104,-0.705953,-1.341590,0.656661,1.236680,-0.032666,1.403443,0.918274,-0.273572,-0.032097,-0.825675,2.027491,-15.807888,-5.164815,3.026101,0.089954,-0.138293,0.000000,-0.062761,-0.024232,-0.000000
1.090000,-1.780467,-0.693541,-1.341930,0.670691,1.245821,-0.035300,1.402324,0.909751,-0.253161,-0.192360,-0.879761,2.053013,-16.239900,-5.651422,2.076399,0.089301,-0.138461,0.000000,-0.067890,-0.009101,0.000000
1.100000,-1.773690,-0.681037,-1.342295,0.684702,1.254873,-0.037728,1.399582,0.900663,-0.232543,-0.356791,-0.938683,2.068987,-16.640885,-6.131790,1.117109,0.088594,-0.138473,0.000000,-0.073612,0.006660,-0.000000
1.110000,-1.766773,-0.668444,-1.342684,0.698678,1.263832,-0.039950,1.395174,0.890963,-0.211812,-0.525174,-1.002237,2.075445,-17.005529,-6.607960,0.148976,0.087827,-0.138325,0.000000,-0.079912,0.023036,0.000000
1.120000,-1.759717,-0.655761,-1.343094,0.712600,1.272690,-0.041965,1.389067,0.880603,-0.191067,-0.696904,-1.070659,2.072083,-17.334334,-7.074767,-0.821361,0.086994,-0.138009,0.000000,-0.086821,0.039981,-0.000000
1.130000,-1.752522,-0.642990,-1.343523,0.726453,1.281441,-0.043772,1.381226,0.869535,-0.170403,-0.871734,-1.143695,2.059023,-17.625061,-7.530442,-1.790040,0.086088,-0.137520,0.000000,-0.094316,0.057474,-0.000000
1.140000,-1.745188,-0.630132,-1.343968,0.740219,1.290078,-0.045373,1.371623,0.857714,-0.149918,-1.049271,-1.221225,2.036301,-17.875473,-7.973215,-2.753201,0.085105,-0.136853,0.000000,-0.102390,0.075483,-0.000000
1.150000,-1.737718,-0.617189,-1.344429,0.753880,1.298593,-0.046771,1.360233,0.845096,-0.129709,-1.229102,-1.303111,2.003990,-18.083331,-8.401318,-3.706981,0.084039,-0.136004,0.000000,-0.111033,0.093966,0.000000
1.160000,-1.730111,-0.604161,-1.344903,0.767418,1.306977,-0.047969,1.347031,0.831639,-0.109870,-1.411097,-1.389096,1.962247,-18.238604,-8.815525,-4.648584,0.082883,-0.134966,0.000000,-0.120218,0.112911,0.000000
1.170000,-1.722370,-0.591050,-1.345388,0.780814,1.315223,-0.048970,1.332007,0.817300,-0.090495,-1.594068,-1.479246,1.911124,-18.347803,-9.211211,-5.572954,0.081632,-0.133736,0.000000,-0.129954,0.132196,0.000000
1.180000,-1.714495,-0.577857,-1.345882,0.794052,1.323320,-0.049780,1.315147,0.802041,-0.071678,-1.777895,-1.573252,1.850859,-18.409642,-9.586295,-6.476096,0.080282,-0.132312,0.000000,-0.140210,0.151802,0.000000
1.190000,-1.706489,-0.564584,-1.346383,0.807111,1.331260,-0.050406,1.296447,0.785823,-0.053508,-1.962099,-1.670896,1.781686,-18.422837,-9.938695,-7.354020,0.078827,-0.130690,0.000000,-0.150959,0.171673,-0.000000
1.200000,-1.698354,-0.551232,-1.346889,0.819974,1.339033,-0.050853,1.275906,0.768611,-0.036073,-2.146186,-1.771943,1.703876,-18.386106,-10.266331,-8.202734,0.077261,-0.128867,0.000000,-0.162174,0.191746,0.000000
1.210000,-1.690090,-0.537804,-1.347400,0.832623,1.346629,-0.051130,1.253521,0.750373,-0.019459,-2.330128,-1.876158,1.617662,-18.286104,-10.566492,-9.016225,0.075582,-0.126842,0.000000,-0.173825,0.212003,-0.000000
1.220000,-1.681702,-0.524300,-1.347912,0.845039,1.354037,-0.051245,1.229307,0.731079,-0.003746,-2.512276,-1.983205,1.523585,-18.135084,-10.837803,-9.792769,0.073784,-0.124615,0.000000,-0.185870,0.232260,-0.000000
1.230000,-1.673191,-0.510724,-1.348424,0.857203,1.361247,-0.051208,1.203281,0.710701,0.010988,-2.692660,-2.092812,1.421942,-17.933239,-11.078262,-10.528620,0.071863,-0.122184,0.000000,-0.198270,0.252499,-0.000000
1.240000,-1.664559,-0.497076,-1.348935,0.869098,1.368248,-0.051029,1.175462,0.689215,0.024669,-2.870772,-2.204660,1.313160,-17.680763,-11.285864,-11.220033,0.069817,-0.119552,0.000000,-0.210982,0.272645,0.000000
1.250000,-1.655809,-0.483360,-1.349444,0.880707,1.375028,-0.050719,1.145875,0.666601,0.037229,-3.046107,-2.318413,1.197702,-17.377847,-11.458606,-11.863264,0.067643,-0.116719,0.000000,-0.223958,0.292621,0.000000
1.260000,-1.646946,-0.469576,-1.349949,0.892010,1.381576,-0.050288,1.114543,0.642841,0.048599,-3.218867,-2.433771,1.075786,-17.006856,-11.592924,-12.447433,0.065337,-0.113686,0.000000,-0.237151,0.312422,-0.000000
1.270000,-1.637970,-0.455729,-1.350449,0.902992,1.387881,-0.049751,1.081511,0.617922,0.058726,-3.386881,-2.550212,0.948618,-16.587996,-11.688566,-12.976802,0.062899,-0.110458,0.000000,-0.250489,0.331791,-0.000000
1.280000,-1.628887,-0.441820,-1.350944,0.913635,1.393930,-0.049118,1.046820,0.591834,0.067555,-3.550476,-2.667408,0.816442,-16.123642,-11.743718,-13.448503,0.060327,-0.107039,0.000000,-0.263921,0.350733,-0.000000
1.290000,-1.619699,-0.427851,-1.351432,0.923923,1.399713,-0.048404,1.010517,0.564573,0.075040,-3.709210,-2.784945,0.679849,-15.616171,-11.756568,-13.859662,0.057621,-0.103432,0.000000,-0.277382,0.369172,-0.000000
1.300000,-1.610410,-0.413826,-1.351912,0.933840,1.405218,-0.047622,0.972653,0.536136,0.081139,-3.862663,-2.902392,0.539460,-15.067958,-11.725303,-14.207410,0.054780,-0.099645,0.000000,-0.290808,0.387032,-0.000000
1.310000,-1.601023,-0.399748,-1.352384,0.943371,1.410432,-0.046786,0.933284,0.506521,0.085814,-4.010308,-3.019852,0.395498,-14.484729,-11.634125,-14.478157,0.051804,-0.095683,0.000000,-0.304189,0.404231,0.000000
1.320000,-1.591544,-0.385619,-1.352847,0.952501,1.415345,-0.045910,0.892467,0.475742,0.089041,-4.152087,-3.135545,0.249644,-13.865101,-11.496919,-14.681062,0.048696,-0.091552,0.000000,-0.317314,0.420720,-0.000000
1.330000,-1.581975,-0.371442,-1.353302,0.961216,1.419943,-0.045010,0.850264,0.443815,0.090801,-4.287496,-3.249636,0.102108,-13.211040,-11.313585,-14.814567,0.045459,-0.087261,0.000000,-0.330180,0.436423,0.000000
1.340000,-1.572321,-0.357221,-1.353747,0.969502,1.424217,-0.044099,0.806740,0.410757,0.091080,-4.416200,-3.361663,-0.046410,-12.524514,-11.084022,-14.877112,0.042094,-0.082817,0.000000,-0.342717,0.451276,0.000000
1.350000,-1.562586,-0.342959,-1.354184,0.977346,1.428155,-0.043193,0.761963,0.376590,0.089872,-4.537884,-3.471163,-0.195193,-11.807487,-10.808131,-14.867140,0.038606,-0.078230,0.000000,-0.354855,0.465221,0.000000
1.360000,-1.552775,-0.328659,-1.354611,0.984737,1.431746,-0.042307,0.716009,0.341337,0.087172,-4.652020,-3.578213,-0.344016,-11.067837,-10.472118,-14.770228,0.034998,-0.073509,0.000000,-0.366584,0.478182,-0.000000
1.370000,-1.542893,-0.314325,-1.355030,0.991663,1.434978,-0.041455,0.668948,0.305038,0.082996,-4.758886,-3.681067,-0.490925,-10.300895,-10.091253,-14.599256,0.031276,-0.068664,0.000000,-0.377700,0.490157,-0.000000
1.380000,-1.532944,-0.299961,-1.355441,0.998113,1.437843,-0.040652,0.620857,0.267729,0.077361,-4.857952,-3.779894,-0.635754,-9.507906,-9.667112,-14.354239,0.027446,-0.063705,0.000000,-0.388208,0.501079,-0.000000
1.390000,-1.522932,-0.285569,-1.355843,1.004077,1.440330,-0.039912,0.571816,0.229455,0.070291,-4.948962,-3.874270,-0.777763,-8.690110,-9.201271,-14.035195,0.023514,-0.058642,0.000000,-0.398049,0.510908,0.000000
1.400000,-1.512864,-0.271155,-1.356239,1.009546,1.442429,-0.039250,0.521906,0.190260,0.061817,-5.031675,-3.963786,-0.916211,-7.848752,-8.695307,-13.642138,0.019487,-0.053488,0.000000,-0.407171,0.519609,-0.000000
1.410000,-1.502743,-0.256722,-1.356629,1.014512,1.444132,-0.038680,0.471210,0.150192,0.051974,-5.105949,-4.048468,-1.050954,-6.982897,-8.140189,-13.160039,0.015373,-0.048252,0.000000,-0.415569,0.527165,0.000000
1.420000,-1.492575,-0.242274,-1.357013,1.018968,1.445430,-0.038215,0.419816,0.109310,0.040816,-5.171361,-4.126944,-1.179843,-6.096231,-7.549400,-12.605803,0.011178,-0.042947,0.000000,-0.423096,0.533526,-0.000000
1.430000,-1.482365,-0.227815,-1.357393,1.022907,1.446316,-0.037868,0.367812,0.067673,0.028397,-5.227809,-4.199346,-1.302836,-5.190263,-6.925814,-11.981289,0.006913,-0.037585,0.000000,-0.429768,0.538687,0.000000
1.440000,-1.472119,-0.213349,-1.357771,1.026323,1.446781,-0.037651,0.315290,0.025344,0.014781,-5.275107,-4.265361,-1.419241,-4.266503,-6.272308,-11.288354,0.002586,-0.032177,0.000000,-0.435555,0.542639,0.000000
1.450000,-1.461841,-0.198881,-1.358147,1.029211,1.446821,-0.037576,0.262341,-0.017612,0.000036,-5.313085,-4.324702,-1.528381,-3.326460,-5.591757,-10.528857,-0.001795,-0.026736,0.000000,-0.440436,0.545376,-0.000000
1.460000,-1.451536,-0.184414,-1.358523,1.031568,1.446427,-0.037654,0.209060,-0.061130,-0.015768,-5.341591,-4.377471,-1.630273,-2.371525,-4.878058,-9.687711,-0.006220,-0.021273,0.000000,-0.444432,0.546903,0.000000
1.470000,-1.441211,-0.169954,-1.358901,1.033391,1.445597,-0.037895,0.155542,-0.105137,-0.032540,-5.360476,-4.422597,-1.722690,-1.403340,-4.144163,-8.785795,-0.010680,-0.015802,0.000000,-0.447451,0.547221,0.000000
1.480000,-1.430870,-0.155504,-1.359281,1.034679,1.444323,-0.038307,0.101883,-0.149558,-0.050190,-5.369619,-4.460300,-1.805800,-0.423428,-3.394048,-7.827043,-0.015166,-0.010332,0.000000,-0.449535,0.546347,-0.000000
1.490000,-1.420519,-0.141069,-1.359667,1.035429,1.442604,-0.038901,0.048182,-0.194318,-0.068623,-5.368911,-4.490437,-1.879054,0.566687,-2.631686,-6.815388,-0.019668,-0.004877,0.000000,-0.450692,0.544297,-0.000000
1.500000,-1.410164,-0.126653,-1.360060,1.035642,1.440436,-0.039682,-0.005462,-0.239341,-0.087737,-5.358257,-4.512906,-1.941944,1.565481,-1.861053,-5.754764,-0.024177,0.000552,0.000000,-0.450938,0.541095,-0.000000
1.510000,-1.399808,-0.112261,-1.360462,1.035320,1.437817,-0.040657,-0.058951,-0.284549,-0.107433,-5.337741,-4.527522,-1.994624,2.575565,-1.089199,-4.633317,-0.028683,0.005944,0.000000,-0.450281,0.536783,0.000000
1.520000,-1.389459,-0.097898,-1.360874,1.034464,1.434745,-0.041832,-0.112183,-0.329865,-0.127591,-5.306913,-4.534550,-2.035185,3.590775,-0.316646,-3.472700,-0.033179,0.011288,0.000000,-0.448783,0.531352,-0.000000
1.530000,-1.379121,-0.083568,-1.361299,1.033078,1.431219,-0.043210,-0.165056,-0.375214,-0.148097,-5.265915,-4.533865,-2.063967,4.609081,0.453007,-2.278782,-0.037656,0.016574,0.000000,-0.446462,0.524855,-0.000000
1.540000,-1.368799,-0.069275,-1.361739,1.031165,1.427241,-0.044795,-0.217468,-0.420517,-0.168830,-5.214728,-4.525512,-2.080669,5.628454,1.216163,-1.057429,-0.042106,0.021789,0.000000,-0.443357,0.517330,0.000000
1.550000,-1.358499,-0.055025,-1.362195,1.028730,1.422809,-0.046587,-0.269316,-0.465699,-0.189669,-5.153349,-4.509575,-2.085044,6.646863,1.969223,0.185492,-0.046521,0.026926,0.000000,-0.439511,0.508816,0.000000
1.560000,-1.348226,-0.040821,-1.362671,1.025781,1.417927,-0.048588,-0.320498,-0.510682,-0.210494,-5.081604,-4.485984,-2.077286,7.657333,2.703806,1.453704,-0.050894,0.031973,0.000000,-0.434949,0.499332,-0.000000
1.570000,-1.337985,-0.026668,-1.363168,1.022323,1.412597,-0.050797,-0.370915,-0.555394,-0.231173,-4.999997,-4.455341,-2.056369,8.663386,3.421683,2.730577,-0.055218,0.036923,0.000000,-0.429772,0.488970,0.000000
1.580000,-1.327781,-0.012570,-1.363688,1.018365,1.406820,-0.053211,-0.420465,-0.599765,-0.251579,-4.908356,-4.417616,-2.022669,9.663597,4.119841,4.009069,-0.059487,0.041765,0.000000,-0.424007,0.477748,-0.000000
1.590000,-1.317620,0.001467,-1.364233,1.013917,1.400603,-0.055827,-0.469049,-0.643724,-0.271584,-4.806749,-4.373020,-1.976206,10.656542,4.795269,5.282139,-0.063696,0.046492,0.000000,-0.417708,0.465709,0.000000
1.600000,-1.307505,0.015440,-1.364805,1.008988,1.393948,-0.058641,-0.516567,-0.687203,-0.291060,-4.695254,-4.321796,-1.917068,11.640798,5.444954,6.542746,-0.067840,0.051095,0.000000,-0.410928,0.452891,0.000000
1.610000,-1.297441,0.029345,-1.365406,1.003589,1.386860,-0.061646,-0.562920,-0.730135,-0.309884,-4.573820,-4.263921,-1.845466,12.611234,6.058420,7.785120,-0.071913,0.055568,0.000000,-0.403694,0.439319,-0.000000
1.620000,-1.287434,0.043176,-1.366039,0.997733,1.379347,-0.064836,-0.608011,-0.772462,-0.327929,-4.442901,-4.200397,-1.761511,13.570586,6.641032,9.000792,-0.075912,0.059902,0.000000,-0.396130,0.425064,0.000000
1.630000,-1.277488,0.056930,-1.366704,0.991434,1.371413,-0.068201,-0.651746,-0.814124,-0.345074,-4.302448,-4.131210,-1.665563,14.517882,7.190692,10.182568,-0.079835,0.064091,0.000000,-0.388258,0.410143,-0.000000
1.640000,-1.267607,0.070603,-1.367403,0.984703,1.363067,-0.071734,-0.694029,-0.855068,-0.361201,-4.152587,-4.056700,-1.557997,15.452153,7.705302,11.323251,-0.083677,0.068129,0.000000,-0.380129,0.394588,0.000000
1.650000,-1.257796,0.084190,-1.368139,0.977558,1.354315,-0.075422,-0.734767,-0.895242,-0.376197,-3.993452,-3.977228,-1.439259,16.372427,8.182763,12.415644,-0.087436,0.072009,0.000000,-0.371796,0.378426,0.000000
1.660000,-1.248057,0.097688,-1.368912,0.970014,1.345165,-0.079254,-0.773868,-0.934594,-0.389947,-3.825240,-3.892858,-1.309532,17.279047,8.612950,13.444040,-0.091112,0.075725,0.000000,-0.363281,0.361688,0.000000
1.670000,-1.238397,0.111092,-1.369724,0.962087,1.335625,-0.083216,-0.811242,-0.973085,-0.402354,-3.647983,-3.804745,-1.170204,18.169570,9.002775,14.410795,-0.094702,0.079271,0.000000,-0.354699,0.344377,-0.000000
1.680000,-1.228817,0.124399,-1.370577,0.953795,1.325706,-0.087296,-0.846798,-1.010677,-0.413320,-3.461906,-3.712941,-1.021542,19.042863,9.351122,15.309755,-0.098206,0.082641,0.000000,-0.346063,0.326520,0.000000
1.690000,-1.219322,0.137605,-1.371471,0.945157,1.315415,-0.091478,-0.880451,-1.047333,-0.422756,-3.267187,-3.617865,-0.864256,19.897795,9.656875,16.134765,-0.101623,0.085831,0.000000,-0.337417,0.308129,0.000000
1.700000,-1.209915,0.150706,-1.372407,0.936192,1.304762,-0.095746,-0.912114,-1.083024,-0.430579,-3.064015,-3.519949,-0.699114,20.733236,9.918919,16.879672,-0.104954,0.088834,0.000000,-0.328801,0.289215,-0.000000
1.710000,-1.200599,0.163699,-1.373386,0.926922,1.293758,-0.100084,-0.941707,-1.117720,-0.436707,-2.852908,-3.419285,-0.526226,21.556056,10.127265,17.520050,-0.108199,0.091646,0.000000,-0.320229,0.269823,0.000000
1.720000,-1.191377,0.176580,-1.374408,0.917366,1.282411,-0.104474,-0.969145,-1.151404,-0.441084,-2.633327,-3.317157,-0.348198,22.356143,10.290758,18.070253,-0.111359,0.094261,0.000000,-0.311799,0.249867,0.000000
1.730000,-1.182253,0.189346,-1.375475,0.907546,1.270733,-0.108899,-0.994347,-1.184059,-0.443654,-2.405868,-3.213619,-0.165135,23.131384,10.409369,18.526363,-0.114435,0.096673,0.000000,-0.303514,0.229392,-0.000000
1.740000,-1.173227,0.201994,-1.376586,0.897486,1.258734,-0.113341,-1.017237,-1.215673,-0.444373,-2.170789,-3.109119,0.022003,23.879670,10.483068,18.884463,-0.117430,0.098877,0.000000,-0.295405,0.208397,-0.000000
1.750000,-1.164304,0.214520,-1.377742,0.887209,1.246423,-0.117781,-1.037739,-1.246239,-0.443204,-1.928372,-3.004107,0.212215,24.598888,10.511828,19.140635,-0.120344,0.100868,0.000000,-0.287498,0.186880,-0.000000
1.760000,-1.155484,0.226921,-1.378942,0.876740,1.233812,-0.122199,-1.055787,-1.275748,-0.440110,-1.679458,-2.898412,0.405523,25.300621,10.479935,19.264172,-0.123180,0.102641,0.000000,-0.279771,0.164901,0.000000
1.770000,-1.146769,0.239195,-1.380186,0.866102,1.220911,-0.126577,-1.071305,-1.304210,-0.435091,-1.423087,-2.793952,0.598339,25.967389,10.404965,19.281227,-0.125940,0.104189,0.000000,-0.272362,0.142307,-0.000000
1.780000,-1.138162,0.251339,-1.381473,0.855322,1.207731,-0.130894,-1.084227,-1.331631,-0.428145,-1.160239,-2.690450,0.790791,26.595402,10.288809,19.191163,-0.128628,0.105507,0.000000,-0.265233,0.119165,-0.000000
1.790000,-1.129663,0.263349,-1.382804,0.844427,1.194282,-0.135133,-1.094490,-1.358023,-0.419280,-0.891321,-2.588307,0.981803,27.180874,10.133359,18.993343,-0.131246,0.106590,0.000000,-0.258400,0.095473,-0.000000
1.800000,-1.121274,0.275224,-1.384176,0.833442,1.180574,-0.139274,-1.102035,-1.383402,-0.408517,-0.616776,-2.487907,1.170296,27.720016,9.940507,18.687129,-0.133797,0.107432,0.000000,-0.251876,0.071232,-0.000000
1.810000,-1.112995,0.286960,-1.385589,0.822395,1.166617,-0.143298,-1.106812,-1.407789,-0.395874,-0.337428,-2.389646,1.356358,28.217653,9.712918,18.242196,-0.136285,0.108026,0.000000,-0.245686,0.046488,0.000000
1.820000,-1.104826,0.298555,-1.387041,0.811315,1.152422,-0.147186,-1.108767,-1.431204,-0.381407,-0.052991,-2.293796,1.536112,28.660331,9.451614,17.691231,-0.138712,0.108368,0.000000,-0.239796,0.021140,0.000000
1.830000,-1.096768,0.310007,-1.388532,0.800229,1.137997,-0.150920,-1.107858,-1.453674,-0.365171,0.235579,-2.200720,1.709839,29.043206,9.158392,17.037232,-0.141082,0.108451,0.000000,-0.234228,-0.004752,-0.000000
1.840000,-1.088821,0.321314,-1.390059,0.789168,1.123351,-0.154483,-1.104044,-1.475228,-0.347233,0.527658,-2.110728,1.876523,29.361438,8.835050,16.283197,-0.143398,0.108270,0.000000,-0.228985,-0.031172,0.000000
1.850000,-1.080985,0.332474,-1.391621,0.778158,1.108495,-0.157859,-1.097295,-1.495900,-0.327668,0.822576,-2.024113,2.035179,29.610183,8.483383,15.432125,-0.145663,0.107820,0.000000,-0.224064,-0.058101,0.000000
1.860000,-1.073258,0.343484,-1.393216,0.767231,1.093436,-0.161032,-1.087584,-1.515713,-0.306546,1.119740,-1.940283,2.186103,29.781419,8.083300,14.455410,-0.147879,0.107094,0.000000,-0.219401,-0.085510,0.000000
1.870000,-1.065640,0.354342,-1.394841,0.756417,1.078183,-0.163986,-1.074896,-1.534719,-0.283980,1.418084,-1.861544,2.325408,29.873874,7.661167,13.391524,-0.150052,0.106089,0.000000,-0.215143,-0.113367,0.000000
1.880000,-1.058129,0.365047,-1.396494,0.745743,1.062744,-0.166707,-1.059221,-1.552959,-0.260075,1.716940,-1.787118,2.453666,29.883094,7.221459,12.247335,-0.152183,0.104800,0.000000,-0.211208,-0.141629,-0.000000
1.890000,-1.050724,0.375596,-1.398174,0.735242,1.047126,-0.169183,-1.040558,-1.570476,-0.234946,2.015453,-1.717158,2.570110,29.804627,6.768654,11.029709,-0.154277,0.103222,0.000000,-0.207583,-0.170244,-0.000000
1.900000,-1.043424,0.385989,-1.399877,0.724942,1.031337,-0.171402,-1.018916,-1.587317,-0.208714,2.312725,-1.651774,2.674038,29.634020,6.307228,9.745515,-0.156336,0.101353,0.000000,-0.204250,-0.199152,0.000000
1.910000,-1.036225,0.396222,-1.401601,0.714873,1.015382,-0.173354,-0.994298,-1.603537,-0.181501,2.608988,-1.591951,2.765549,29.337110,5.864990,8.383243,-0.158364,0.099188,0.000000,-0.201293,-0.228392,-0.000000
1.920000,-1.029125,0.406296,-1.403343,0.705066,0.999268,-0.175030,-0.966748,-1.619171,-0.153450,2.900469,-1.535524,2.842355,28.942791,5.420228,6.970389,-0.160363,0.096727,0.000000,-0.198443,-0.257625,-0.000000
1.930000,-1.022122,0.416207,-1.405101,0.695548,0.983001,-0.176421,-0.936304,-1.634262,-0.124702,3.187516,-1.483550,2.904818,28.450249,4.974562,5.516071,-0.162334,0.093968,0.000000,-0.195793,-0.286886,-0.000000
1.940000,-1.015213,0.425955,-1.406871,0.686349,0.966585,-0.177522,-0.903015,-1.648857,-0.095402,3.469144,-1.436030,2.952569,27.858670,4.529612,4.029407,-0.164279,0.090913,0.000000,-0.193318,-0.316077,0.000000
1.950000,-1.008394,0.435538,-1.408650,0.677497,0.950025,-0.178328,-0.866942,-1.662998,-0.065700,3.744357,-1.392950,2.985329,27.167238,4.086998,2.519516,-0.166200,0.087561,0.000000,-0.190995,-0.345094,-0.000000
1.960000,-1.001662,0.444955,-1.410436,0.669019,0.933326,-0.178835,-0.828139,-1.676736,-0.035744,4.013395,-1.354809,3.003120,26.343779,3.661786,0.990274,-0.168100,0.083914,0.000000,-0.188856,-0.373942,-0.000000
1.970000,-0.995013,0.454204,-1.412226,0.660943,0.916492,-0.179042,-0.786703,-1.690108,-0.005689,4.272307,-1.320301,3.005354,25.422678,3.240504,-0.543316,-0.169978,0.079977,0.000000,-0.186743,-0.402211,-0.000000
1.980000,-0.988442,0.463285,-1.414016,0.653293,0.899525,-0.178949,-0.742726,-1.703156,0.024312,4.521533,-1.289986,2.992271,24.406960,2.823124,-2.071496,-0.171835,0.075754,0.000000,-0.184697,-0.429908,-0.000000
1.990000,-0.981945,0.472194,-1.415804,0.646096,0.882430,-0.178557,-0.696308,-1.715922,0.054106,4.760141,-1.263826,2.963975,23.299648,2.409619,-3.584505,-0.173672,0.071252,0.000000,-0.182702,-0.456899,-0.000000
2.000000,-0.975518,0.480933,-1.417586,0.639375,0.865208,-0.177868,-0.647561,-1.728446,0.083541,4.987231,-1.241781,2.920664,22.103768,1.999963,-5.072583,-0.175489,0.066479,0.000000,-0.180741,-0.483048,0.000000
2.010000,-0.969156,0.489498,-1.419360,0.633152,0.847861,-0.176888,-0.596596,-1.740758,0.112467,5.202708,-1.222652,2.862339,20.802734,1.564781,-6.518402,-0.177286,0.061443,0.000000,-0.178680,-0.508291,0.000000
2.020000,-0.962854,0.497890,-1.421123,0.627450,0.830393,-0.175621,-0.543552,-1.752914,0.140741,5.403894,-1.209151,2.790103,19.421583,1.136988,-7.920697,-0.179063,0.056155,0.000000,-0.176795,-0.532294,-0.000000
2.030000,-0.956605,0.506106,-1.422872,0.622288,0.812803,-0.174075,-0.488566,-1.764955,0.168223,5.590890,-1.199876,2.704099,17.965742,0.720151,-9.270633,-0.180822,0.050628,0.000000,-0.174938,-0.555003,0.000000
2.040000,-0.950406,0.514145,-1.424604,0.617684,0.795094,-0.172260,-0.431784,-1.776925,0.194779,5.762978,-1.194699,2.604895,16.440636,0.317837,-10.559379,-0.182562,0.044876,0.000000,-0.173100,-0.576274,-0.000000
2.050000,-0.944250,0.522007,-1.426316,0.613657,0.777265,-0.170183,-0.373358,-1.788863,0.220279,5.919490,-1.193459,2.493145,14.851693,-0.066387,-11.778100,-0.184284,0.038913,0.000000,-0.171267,-0.595969,-0.000000
2.060000,-0.938131,0.529690,-1.428007,0.610222,0.759317,-0.167858,-0.313439,-1.800811,0.244590,6.060614,-1.196335,2.368484,13.184199,-0.419350,-12.889887,-0.185987,0.032756,0.000000,-0.169446,-0.614037,-0.000000
2.070000,-0.932043,0.537193,-1.429673,0.607393,0.741249,-0.165295,-0.252202,-1.812801,0.267613,6.183905,-1.202194,2.234375,11.466186,-0.748265,-13.917421,-0.187672,0.026424,0.000000,-0.167583,-0.630147,-0.000000
2.080000,-0.925981,0.544515,-1.431312,0.605182,0.723060,-0.162510,-0.189819,-1.824865,0.289245,6.289796,-1.211212,2.090434,9.705547,-1.050741,-14.855307,-0.189339,0.019935,0.000000,-0.165691,-0.644279,-0.000000
2.090000,-0.919938,0.551654,-1.432922,0.603600,0.704751,-0.159515,-0.126466,-1.837034,0.309392,6.377900,-1.223113,1.937586,7.910174,-1.324387,-15.698148,-0.190986,0.013311,0.000000,-0.163759,-0.656327,-0.000000
2.100000,-0.913907,0.558609,-1.434502,0.602655,0.686319,-0.156327,-0.062321,-1.849336,0.327970,6.447910,-1.237596,1.776806,6.087960,-1.566812,-16.440550,-0.192614,0.006572,0.000000,-0.161780,-0.666201,-0.000000
2.110000,-0.907882,0.565380,-1.436048,0.602355,0.667764,-0.152961,0.002434,-1.861794,0.344890,6.499805,-1.254307,1.607735,4.241526,-1.776377,-17.041939,-0.194221,-0.000257,0.000000,-0.159716,-0.673843,-0.000000
2.120000,-0.901858,0.571964,-1.437560,0.602705,0.649083,-0.149435,0.067613,-1.874429,0.360107,6.532941,-1.272969,1.434753,2.384681,-1.949847,-17.536406,-0.195808,-0.007155,0.000000,-0.157634,-0.679144,-0.000000
2.130000,-0.895826,0.578361,-1.439036,0.603708,0.630274,-0.145765,0.133031,-1.887258,0.373570,6.547492,-1.293176,1.257367,0.525964,-2.084738,-17.922861,-0.197374,-0.014097,0.000000,-0.155494,-0.682088,-0.000000
2.140000,-0.889781,0.584569,-1.440475,0.605366,0.611337,-0.141969,0.198501,-1.900296,0.385243,6.543483,-1.314527,1.076660,-1.326088,-2.178569,-18.200218,-0.198918,-0.021059,0.000000,-0.153288,-0.682652,0.000000
2.150000,-0.883716,0.590587,-1.441875,0.607678,0.592268,-0.138066,0.263839,-1.913551,0.395096,6.521021,-1.336602,0.893730,-3.162937,-2.228855,-18.367388,-0.200439,-0.028016,0.000000,-0.151008,-0.680833,0.000000
2.160000,-0.877625,0.596414,-1.443236,0.610642,0.573065,-0.134073,0.328856,-1.927033,0.403099,6.479929,-1.359361,0.708310,-4.966603,-2.222766,-18.388616,-0.201938,-0.034945,0.000000,-0.148660,-0.676603,0.000000
2.170000,-0.871501,0.602048,-1.444557,0.614253,0.553726,-0.130010,0.393378,-1.940737,0.409264,6.421371,-1.381362,0.524770,-6.739146,-2.169433,-18.301727,-0.203412,-0.041821,0.000000,-0.146202,-0.670103,0.000000
2.180000,-0.865338,0.607488,-1.445836,0.618507,0.534250,-0.125894,0.457225,-1.954658,0.413599,6.345275,-1.402588,0.342626,-8.473184,-2.067641,-18.109877,-0.204861,-0.048621,0.000000,-0.143638,-0.661338,-0.000000
2.190000,-0.859129,0.612733,-1.447074,0.623395,0.514633,-0.121744,0.520226,-1.968785,0.416124,6.252061,-1.422549,0.162912,-10.161334,-1.916174,-17.816222,-0.206284,-0.055323,0.000000,-0.140958,-0.650381,0.000000
2.200000,-0.852868,0.617780,-1.448271,0.628908,0.494873,-0.117577,0.582211,-1.983103,0.416869,6.142225,-1.440742,-0.013370,-11.796215,-1.713816,-17.423921,-0.207680,-0.061903,0.000000,-0.138148,-0.637320,0.000000
2.210000,-0.846549,0.622630,-1.449426,0.635036,0.474970,-0.113412,0.643008,-1.997598,0.415861,6.015468,-1.457189,-0.186239,-13.348461,-1.445765,-16.911114,-0.209047,-0.068341,0.000000,-0.135227,-0.622160,0.000000
2.220000,-0.840166,0.627279,-1.450539,0.641764,0.454921,-0.109265,0.702470,-2.012237,0.413162,5.874493,-1.470091,-0.352411,-14.835366,-1.126054,-16.309038,-0.210384,-0.074617,0.000000,-0.132098,-0.605248,0.000000
2.230000,-0.833712,0.631728,-1.451611,0.649080,0.434725,-0.105154,0.760449,-2.026988,0.408834,5.718994,-1.479540,-0.512143,-16.252239,-0.755133,-15.623911,-0.211689,-0.080713,0.000000,-0.128781,-0.586602,0.000000
2.240000,-0.827182,0.635973,-1.452642,0.656968,0.414381,-0.101094,0.816804,-2.041815,0.402944,5.549697,-1.485025,-0.664633,-17.594389,-0.333449,-14.861955,-0.212959,-0.086612,0.000000,-0.125257,-0.566357,-0.000000
2.250000,-0.820571,0.640015,-1.453633,0.665410,0.393889,-0.097100,0.871400,-2.056674,0.395568,5.367371,-1.486041,-0.809146,-18.857128,0.138551,-14.029388,-0.214193,-0.092297,0.000000,-0.121507,-0.544654,0.000000
2.260000,-0.813872,0.643851,-1.454585,0.674390,0.373248,-0.093187,0.924099,-2.071524,0.386785,5.171806,-1.482564,-0.945433,-20.009774,0.672460,-13.121652,-0.215389,-0.097754,0.000000,-0.117549,-0.521528,-0.000000
2.270000,-0.807081,0.647479,-1.455497,0.683886,0.352459,-0.089369,0.974799,-2.086307,0.376690,4.966301,-1.472970,-1.071871,-21.076810,1.254314,-12.157066,-0.216543,-0.102970,0.000000,-0.113262,-0.497391,-0.000000
2.280000,-0.800193,0.650899,-1.456373,0.693879,0.331522,-0.085657,1.023391,-2.100963,0.365381,4.750560,-1.457325,-1.188410,-22.056728,1.882191,-11.143170,-0.217653,-0.107936,0.000000,-0.108670,-0.472266,0.000000
2.290000,-0.793202,0.654109,-1.457211,0.704346,0.310440,-0.082065,1.069779,-2.115431,0.352957,4.525462,-1.435179,-1.294595,-22.948019,2.554169,-10.087505,-0.218715,-0.112641,0.000000,-0.103748,-0.446301,0.000000
2.300000,-0.786104,0.657108,-1.458014,0.715267,0.289214,-0.078602,1.113872,-2.129644,0.339524,4.291900,-1.406101,-1.390046,-23.749176,3.268324,-8.997609,-0.219727,-0.117077,0.000000,-0.098470,-0.419638,-0.000000
2.310000,-0.778895,0.659893,-1.458784,0.726616,0.267848,-0.075277,1.155582,-2.143532,0.325194,4.049900,-1.369988,-1.474364,-24.436366,4.030553,-7.883411,-0.220684,-0.121238,0.000000,-0.092845,-0.392330,-0.000000
2.320000,-0.771571,0.662464,-1.459520,0.738370,0.246345,-0.072100,1.194849,-2.157017,0.310075,3.802477,-1.325714,-1.547543,-25.033139,4.830158,-6.749772,-0.221582,-0.125118,0.000000,-0.086764,-0.364720,-0.000000
2.330000,-0.764126,0.664819,-1.460226,0.750505,0.224709,-0.069078,1.231613,-2.170019,0.294281,3.549534,-1.273269,-1.609319,-25.540721,5.664260,-5.603937,-0.222418,-0.128714,0.000000,-0.080239,-0.336837,-0.000000
2.340000,-0.756559,0.666958,-1.460902,0.762994,0.202947,-0.066217,1.265824,-2.182454,0.277927,3.291956,-1.212323,-1.659605,-25.960339,6.529979,-4.453156,-0.223185,-0.132024,0.000000,-0.073243,-0.308797,0.000000
2.350000,-0.748865,0.668878,-1.461551,0.775813,0.181063,-0.063521,1.297440,-2.194236,0.261127,3.030617,-1.142574,-1.698390,-26.293218,7.424434,-3.304676,-0.223881,-0.135047,0.000000,-0.065751,-0.280713,-0.000000
2.360000,-0.741042,0.670579,-1.462173,0.788934,0.159064,-0.060995,1.326420,-2.205277,0.244002,2.765794,-1.063908,-1.725287,-26.525851,8.348765,-2.176959,-0.224499,-0.137781,0.000000,-0.057763,-0.252634,0.000000
2.370000,-0.733086,0.672059,-1.462771,0.802332,0.136960,-0.058642,1.352749,-2.215483,0.226659,2.499717,-0.975703,-1.741479,-26.676000,9.295582,-1.064666,-0.225034,-0.140230,0.000000,-0.049187,-0.224780,-0.000000
2.380000,-0.724995,0.673318,-1.463347,0.815980,0.114758,-0.056463,1.376411,-2.224760,0.209209,2.232538,-0.877932,-1.746651,-26.746696,10.261514,0.026331,-0.225481,-0.142394,0.000000,-0.040029,-0.197176,0.000000
2.390000,-0.716766,0.674354,-1.463901,0.829852,0.092468,-0.054458,1.397399,-2.233010,0.191762,1.965038,-0.770420,-1.741043,-26.740969,11.243189,1.090157,-0.225833,-0.144277,0.000000,-0.030263,-0.169898,0.000000
2.400000,-0.708397,0.675167,-1.464437,0.843919,0.070101,-0.052627,1.415713,-2.240135,0.174423,1.697964,-0.653027,-1.724958,-26.661848,12.237235,2.120936,-0.226084,-0.145882,0.000000,-0.019865,-0.143013,0.000000
2.410000,-0.699887,0.675756,-1.464954,0.858157,0.047669,-0.050969,1.431359,-2.246037,0.157303,1.431791,-0.525706,-1.698136,-26.506183,13.241803,3.097186,-0.226228,-0.147213,0.000000,-0.008831,-0.116566,-0.000000
2.420000,-0.691233,0.676120,-1.465456,0.872538,0.025185,-0.049480,1.444355,-2.250616,0.140492,1.167786,-0.388241,-1.662460,-26.283940,14.251813,4.030552,-0.226258,-0.148276,0.000000,0.002911,-0.090643,-0.000000
2.430000,-0.682435,0.676259,-1.465945,0.887035,0.002662,-0.048158,1.454724,-2.253769,0.124084,0.906321,-0.240663,-1.617681,-25.998907,15.263707,4.917074,-0.226168,-0.149075,0.000000,0.015361,-0.065271,-0.000000
2.440000,-0.673492,0.676173,-1.466420,0.901624,-0.019885,-0.046997,1.462492,-2.255395,0.108167,0.648005,-0.082972,-1.564288,-25.654870,16.273928,5.752787,-0.225949,-0.149617,0.000000,0.028539,-0.040487,0.000000
2.450000,-0.664403,0.675861,-1.466885,0.916277,-0.042441,-0.045992,1.467696,-2.255394,0.092825,0.393408,0.084798,-1.502808,-25.255616,17.278918,6.533729,-0.225594,-0.149908,0.000000,0.042466,-0.016320,0.000000
2.460000,-0.655167,0.675324,-1.467340,0.930969,-0.064987,-0.045138,1.470375,-2.253666,0.078143,0.143101,0.262555,-1.433139,-24.805882,18.275666,7.239004,-0.225097,-0.149955,0.000000,0.057145,0.007191,0.000000
2.470000,-0.645783,0.674562,-1.467788,0.945676,-0.087508,-0.044427,1.470574,-2.250110,0.064185,-0.102508,0.450245,-1.357474,-24.308388,19.260001,7.883656,-0.224449,-0.149763,0.000000,0.072633,0.030060,-0.000000
2.480000,-0.636253,0.673574,-1.468229,0.960373,-0.109983,-0.043852,1.468342,-2.244629,0.051014,-0.342919,0.647702,-1.275674,-23.766804,20.228298,8.465796,-0.223642,-0.149340,0.000000,0.088928,0.052259,0.000000
2.490000,-0.626576,0.672362,-1.468666,0.975035,-0.132394,-0.043404,1.463734,-2.237124,0.038690,-0.577710,0.854746,-1.188373,-23.184800,21.176931,8.983534,-0.222667,-0.148694,0.000000,0.106045,0.073776,-0.000000
2.500000,-0.616753,0.670927,-1.469098,0.989640,-0.154719,-0.043075,1.456808,-2.227502,0.027263,-0.806493,1.071163,-1.096224,-22.566047,22.102276,9.434982,-0.221518,-0.147830,0.000000,0.123996,0.094607,-0.000000
2.510000,-0.606783,0.669268,-1.469528,1.004163,-0.176936,-0.042856,1.447628,-2.215671,0.016786,-1.028709,1.296689,-0.999234,-21.919543,23.001031,9.801420,-0.220185,-0.146757,0.000000,0.142779,0.114719,-0.000000
2.520000,-0.596670,0.667388,-1.469955,1.018585,-0.199024,-0.042736,1.436256,-2.201539,0.007289,-1.244546,1.531067,-0.899671,-21.242978,23.869208,10.099850,-0.218659,-0.145481,0.000000,0.162436,0.134183,0.000000
2.530000,-0.586412,0.665288,-1.470383,1.032882,-0.220959,-0.042707,1.422760,-2.185021,-0.001198,-1.453479,1.773959,-0.797464,-20.539369,24.703144,10.330442,-0.216933,-0.144010,0.000000,0.182958,0.152967,-0.000000
2.540000,-0.576012,0.662970,-1.470810,1.047033,-0.242716,-0.042757,1.407210,-2.166033,-0.008653,-1.655253,2.025003,-0.693288,-19.811735,25.499173,10.493370,-0.214997,-0.142351,0.000000,0.204349,0.171074,0.000000
2.550000,-0.565472,0.660435,-1.471238,1.061019,-0.264271,-0.042876,1.389680,-2.144495,-0.015060,-1.849643,2.283804,-0.587821,-19.063093,26.253632,10.588804,-0.212843,-0.140510,0.000000,0.226607,0.188510,-0.000000
2.560000,-0.554793,0.657685,-1.471668,1.074820,-0.285598,-0.043055,1.370246,-2.120332,-0.020401,-2.036189,2.549956,-0.481095,-18.303169,26.962086,10.600724,-0.210463,-0.138496,0.000000,0.249720,0.205245,-0.000000
2.570000,-0.543976,0.654724,-1.472099,1.088418,-0.306669,-0.043281,1.348981,-2.093473,-0.024682,-2.215355,2.822917,-0.375301,-17.527451,27.621735,10.547476,-0.207846,-0.136315,0.000000,0.273705,0.221368,-0.000000
2.580000,-0.533025,0.651553,-1.472533,1.101794,-0.327458,-0.043545,1.325965,-2.063853,-0.027910,-2.386693,3.102216,-0.270356,-16.738136,28.229008,10.431214,-0.204986,-0.133974,0.000000,0.298538,0.236846,-0.000000
2.590000,-0.521941,0.648175,-1.472970,1.114932,-0.347937,-0.043836,1.301274,-2.031410,-0.030094,-2.550079,3.387311,-0.166880,-15.937420,28.780336,10.254092,-0.201873,-0.131479,0.000000,0.324203,0.251685,0.000000
2.600000,-0.510727,0.644595,-1.473410,1.127814,-0.368076,-0.044143,1.274990,-1.996089,-0.031254,-2.705411,3.677624,-0.065470,-15.127499,29.272147,10.018264,-0.198499,-0.128838,0.000000,0.350679,0.265889,0.000000
2.610000,-0.499386,0.640815,-1.473853,1.140426,-0.387849,-0.044458,1.247195,-1.957840,-0.031406,-2.852378,3.972686,0.033881,-14.316325,29.697254,9.711130,-0.194856,-0.126057,0.000000,0.377943,0.279434,0.000000
2.620000,-0.487920,0.636839,-1.474299,1.152753,-0.407223,-0.044768,1.217969,-1.916622,-0.030588,-2.991462,4.271510,0.129236,-13.499633,30.056148,9.351404,-0.190937,-0.123144,0.000000,0.405953,0.292393,0.000000
2.630000,-0.476332,0.632672,-1.474748,1.164781,-0.426171,-0.045066,1.187393,-1.872399,-0.028834,-3.122357,4.573578,0.220747,-12.678917,30.345700,8.943049,-0.186735,-0.120104,0.000000,0.434674,0.304734,0.000000
2.640000,-0.464625,0.628318,-1.475200,1.176497,-0.444661,-0.045342,1.155550,-1.825142,-0.026187,-3.245032,4.878182,0.307948,-11.855666,30.562784,8.490024,-0.182242,-0.116943,0.000000,0.464059,0.316459,-0.000000
2.650000,-0.452803,0.623781,-1.475655,1.187888,-0.462664,-0.045587,1.122520,-1.774829,-0.022691,-3.359467,5.184582,0.390412,-11.031375,30.704272,7.996290,-0.177452,-0.113670,0.000000,0.494053,0.327567,0.000000
2.660000,-0.440869,0.619066,-1.476112,1.198944,-0.480148,-0.045793,1.088389,-1.721443,-0.018391,-3.465516,5.492338,0.468204,-10.211184,30.758621,7.454381,-0.172359,-0.110290,0.000000,0.524622,0.338035,0.000000
2.670000,-0.428825,0.614179,-1.476571,1.209653,-0.497082,-0.045953,1.053237,-1.664982,-0.013346,-3.563533,5.799861,0.539905,-9.392487,30.732151,6.881084,-0.166958,-0.106810,0.000000,0.555633,0.347907,-0.000000
2.680000,-0.416677,0.609126,-1.477031,1.220005,-0.513437,-0.046058,1.017146,-1.605448,-0.007612,-3.653374,6.106705,0.605739,-8.576330,30.622763,6.281759,-0.161245,-0.103236,0.000000,0.587039,0.357154,-0.000000
2.690000,-0.404426,0.603913,-1.477492,1.229993,-0.529181,-0.046103,0.980197,-1.542853,-0.001251,-3.735071,6.412032,0.665472,-7.763756,30.428361,5.661767,-0.155216,-0.099575,0.000000,0.618751,0.365770,-0.000000
2.700000,-0.392078,0.598545,-1.477953,1.239607,-0.544284,-0.046081,0.942471,-1.477216,0.005676,-3.808665,6.714982,0.718923,-6.955811,30.146847,5.026468,-0.148869,-0.095834,0.000000,0.650675,0.373747,-0.000000
2.710000,-0.379635,0.593029,-1.478413,1.248840,-0.558716,-0.045988,0.904051,-1.408559,0.013108,-3.874147,7.015195,0.766160,-6.155055,29.762919,4.376365,-0.142201,-0.092019,0.000000,0.682757,0.381066,-0.000000
2.720000,-0.367103,0.587373,-1.478872,1.257685,-0.572446,-0.045818,0.865015,-1.336926,0.020978,-3.931720,7.310531,0.806654,-5.360830,29.289304,3.722269,-0.135214,-0.088137,0.000000,0.714767,0.387737,-0.000000
2.730000,-0.354483,0.581583,-1.479329,1.266138,-0.585444,-0.045567,0.825443,-1.262365,0.029219,-3.981388,7.600680,0.840612,-4.573996,28.725520,3.070137,-0.127907,-0.084195,0.000000,0.746639,0.393739,-0.000000
2.740000,-0.341781,0.575666,-1.479783,1.274193,-0.597683,-0.045232,0.785413,-1.184933,0.037768,-4.023228,7.884739,0.868083,-3.795411,28.071087,2.425922,-0.120282,-0.080200,0.000000,0.778248,0.399060,0.000000
2.750000,-0.329001,0.569632,-1.480234,1.281845,-0.609134,-0.044811,0.745004,-1.104694,0.046560,-4.057326,8.161798,0.889177,-3.025935,27.325527,1.795580,-0.112343,-0.076158,0.000000,0.809458,0.403688,-0.000000
2.760000,-0.316146,0.563487,-1.480679,1.289092,-0.619768,-0.044300,0.704293,-1.021717,0.055529,-4.083772,8.431543,0.903858,-2.266620,26.473244,1.190182,-0.104094,-0.072077,0.000000,0.840191,0.407611,0.000000
2.770000,-0.303220,0.557239,-1.481119,1.295930,-0.629559,-0.043700,0.663354,-0.936093,0.064617,-4.102686,8.691637,0.912836,-1.518106,25.530724,0.609939,-0.095541,-0.067964,0.000000,0.870153,0.410817,0.000000
2.780000,-0.290228,0.550898,-1.481553,1.302358,-0.638482,-0.043008,0.622264,-0.847917,0.073767,-4.114173,8.941861,0.916159,-0.781230,24.499337,0.060182,-0.086694,-0.063825,0.000000,0.899265,0.413296,-0.000000
2.790000,-0.277174,0.544473,-1.481979,1.308375,-0.646510,-0.042224,0.581095,-0.757292,0.082923,-4.118352,9.181332,0.914159,-0.056826,23.380454,-0.453763,-0.077560,-0.059669,0.000000,0.927377,0.415039,-0.000000
2.800000,-0.264062,0.537971,-1.482397,1.313980,-0.653620,-0.041350,0.539920,-0.664329,0.092033,-4.115354,9.409183,0.907221,0.654270,22.175446,-0.926566,-0.068150,-0.055502,0.000000,0.954335,0.416037,-0.000000
2.810000,-0.250896,0.531403,-1.482806,1.319174,-0.659789,-0.040384,0.498811,-0.569144,0.101045,-4.105313,9.625100,0.895127,1.351211,20.872015,-1.336336,-0.058477,-0.051331,0.000000,0.980047,0.416288,-0.000000
2.820000,-0.237680,0.524779,-1.483205,1.323957,-0.664996,-0.039329,0.457837,-0.471872,0.109923,-4.088379,9.826961,0.879920,2.033175,19.486873,-1.696336,-0.048554,-0.047164,0.000000,1.004220,0.415779,0.000000
2.830000,-0.224418,0.518107,-1.483592,1.328331,-0.669220,-0.038186,0.417066,-0.372652,0.118632,-4.064703,10.014575,0.861377,2.699331,18.023065,-2.003265,-0.038398,-0.043008,0.000000,1.026779,0.414516,-0.000000
2.840000,-0.211115,0.511397,-1.483968,1.332299,-0.672443,-0.036957,0.376565,-0.271630,0.127141,-4.034448,10.187170,0.840043,3.348844,16.483636,-2.253822,-0.028024,-0.038870,0.000000,1.047583,0.412499,0.000000
2.850000,-0.197774,0.504661,-1.484331,1.335864,-0.674647,-0.035644,0.336399,-0.168961,0.135426,-3.997784,10.344006,0.816499,3.980882,14.871629,-2.444707,-0.017452,-0.034757,0.000000,1.066503,0.409733,0.000000
2.860000,-0.184399,0.497908,-1.484681,1.339029,-0.675817,-0.034249,0.296630,-0.064801,0.143455,-3.954862,10.484786,0.790318,4.593888,13.179605,-2.546342,-0.006700,-0.030677,0.000000,1.083456,0.406228,0.000000
2.870000,-0.170994,0.491148,-1.485016,1.341798,-0.675939,-0.032775,0.257321,0.040677,0.151230,-3.905937,10.607849,0.764609,5.187840,11.422375,-2.584922,0.004210,-0.026635,0.000000,1.098230,0.401995,0.000000
2.880000,-0.157564,0.484393,-1.485336,1.344177,-0.675000,-0.031225,0.218531,0.147297,0.158747,-3.851172,10.713031,0.738830,5.761993,9.604270,-2.560365,0.015257,-0.022639,0.000000,1.110777,0.397050,-0.000000
2.890000,-0.144112,0.477652,-1.485640,1.346170,-0.672990,-0.029601,0.180317,0.254876,0.166008,-3.790766,10.799746,0.713613,6.315603,7.729617,-2.472586,0.026418,-0.018695,0.000000,1.121012,0.391413,-0.000000
2.900000,-0.130642,0.470937,-1.485928,1.347785,-0.669900,-0.027906,0.142734,0.363228,0.173023,-3.724930,10.867449,0.689590,6.847924,5.802744,-2.321505,0.037669,-0.014810,0.000000,1.128867,0.385107,0.000000
2.910000,-0.117158,0.464258,-1.486198,1.349027,-0.665723,-0.026141,0.105836,0.472163,0.179793,-3.653819,10.915940,0.666175,7.356641,3.820422,-2.076249,0.048987,-0.010990,0.000000,1.134311,0.378152,-0.000000
2.920000,-0.103663,0.457626,-1.486450,1.349904,-0.660455,-0.024310,0.069674,0.581480,0.186356,-3.577803,10.944053,0.646889,7.842773,1.795462,-1.771295,0.060347,-0.007240,0.000000,1.137247,0.370590,0.000000
2.930000,-0.090161,0.451052,-1.486684,1.350423,-0.654093,-0.022415,0.034296,0.690976,0.192742,-3.497041,10.951725,0.630936,8.305766,-0.266881,-1.410329,0.071724,-0.003566,0.000000,1.137684,0.362449,-0.000000
2.940000,-0.076655,0.444548,-1.486898,1.350593,-0.646636,-0.020456,-0.000252,0.800445,0.198987,-3.411766,10.938608,0.618857,8.745067,-2.361353,-0.997038,0.083092,0.000026,0.000000,1.135618,0.353762,0.000000
2.950000,-0.063150,0.438123,-1.487093,1.350421,-0.638085,-0.018435,-0.033925,0.909678,0.205133,-3.322220,10.904408,0.611157,9.160125,-4.482700,-0.535110,0.094428,0.003532,0.000000,1.131058,0.344568,-0.000000
2.960000,-0.049648,0.431789,-1.487267,1.349918,-0.628444,-0.016353,-0.066682,1.018465,0.211214,-3.228573,10.849109,0.607135,9.548529,-6.631402,0.001319,0.105705,0.006947,0.000000,1.124040,0.334896,0.000000
2.970000,-0.036153,0.425558,-1.487420,1.349091,-0.617718,-0.014211,-0.098484,1.126588,0.217295,-3.131250,10.771984,0.609990,9.911811,-8.795770,0.575392,0.116901,0.010266,0.000000,1.114578,0.324806,0.000000
2.980000,-0.022667,0.419439,-1.487551,1.347951,-0.605915,-0.012007,-0.129295,1.233832,0.223433,-3.030422,10.673161,0.618744,10.249646,-10.969847,1.179804,0.127989,0.013486,0.000000,1.102737,0.314332,-0.000000
2.990000,-0.009195,0.413443,-1.487660,1.346508,-0.593045,-0.009741,-0.159082,1.339979,0.229690,-2.926343,10.552574,0.633663,10.561708,-13.147676,1.807250,0.138948,0.016604,0.000000,1.088582,0.303514,0.000000
3.000000,0.004262,0.407581,-1.487745,1.344773,-0.579120,-0.007413,-0.187812,1.444811,0.236128,-2.819275,10.410215,0.654941,10.847673,-15.323303,2.450422,0.149753,0.019615,0.000000,1.072185,0.292395,0.000000
3.010000,0.017700,0.401864,-1.487808,1.342756,-0.564154,-0.005018,-0.215458,1.548114,0.242805,-2.709442,10.246448,0.682153,11.106309,-17.498651,3.115821,0.160384,0.022517,0.000000,1.053649,0.281009,0.000000
3.020000,0.031116,0.396302,-1.487846,1.340468,-0.548163,-0.002555,-0.241993,1.649668,0.249793,-2.597197,10.060644,0.716639,11.338308,-19.658919,3.780645,0.170819,0.025307,0.000000,1.033007,0.269411,0.000000
3.030000,0.044508,0.390904,-1.487858,1.337920,-0.531167,-0.000021,-0.267394,1.749256,0.257159,-2.482765,9.853343,0.757734,11.543456,-21.797185,4.435900,0.181038,0.027984,0.000000,1.010378,0.257633,0.000000
3.040000,0.057874,0.385682,-1.487846,1.335124,-0.513186,0.002589,-0.291642,1.846664,0.264969,-2.366418,9.624797,0.805295,11.721538,-23.906530,5.072587,0.191021,0.030545,0.000000,0.985856,0.245714,-0.000000
3.050000,0.071210,0.380644,-1.487806,1.332091,-0.494242,0.005280,-0.314717,1.941682,0.273286,-2.248426,9.375331,0.859094,11.872340,-25.980031,5.681713,0.200749,0.032989,0.000000,0.959540,0.233689,-0.000000
3.060000,0.084515,0.375800,-1.487740,1.328833,-0.474361,0.008057,-0.336605,2.034107,0.282171,-2.129051,9.105801,0.918831,11.995368,-28.022443,6.253697,0.210206,0.035314,0.000000,0.931571,0.221593,-0.000000
3.070000,0.097786,0.371159,-1.487645,1.325363,-0.453569,0.010926,-0.357294,2.123731,0.291681,-2.008598,8.815574,0.984042,12.090722,-30.013740,6.780198,0.219375,0.037520,0.000000,0.901935,0.209460,-0.000000
3.080000,0.111021,0.366731,-1.487521,1.321691,-0.431896,0.013893,-0.376775,2.210353,0.301869,-1.887330,8.505725,1.054253,12.158223,-31.945571,7.252292,0.228240,0.039606,0.000000,0.870778,0.197319,-0.000000
3.090000,0.124219,0.362524,-1.487367,1.317831,-0.409373,0.016966,-0.395039,2.293782,0.312781,-1.765527,8.176889,1.128877,12.197690,-33.809587,7.661053,0.236786,0.041571,0.000000,0.838195,0.185198,-0.000000
3.100000,0.137377,0.358547,-1.487181,1.313795,-0.386032,0.020151,-0.412084,2.373830,0.324459,-1.643470,7.829787,1.207234,12.208943,-35.597436,7.997556,0.244999,0.043416,0.000000,0.804273,0.173124,-0.000000
3.110000,0.150494,0.354806,-1.486963,1.309594,-0.361908,0.023457,-0.427907,2.450311,0.336946,-1.521305,7.464445,1.289562,12.188319,-37.281147,8.227502,0.252867,0.045140,0.000000,0.769048,0.161111,-0.000000
3.120000,0.163569,0.351311,-1.486712,1.305240,-0.337038,0.026892,-0.442512,2.523064,0.350256,-1.399642,7.083589,1.372627,12.139548,-38.874394,8.370449,0.260376,0.046744,0.000000,0.732720,0.149203,-0.000000
3.130000,0.176599,0.348068,-1.486425,1.300747,-0.311459,0.030465,-0.455902,2.591931,0.364402,-1.278607,6.687278,1.456662,12.062877,-40.371227,8.420579,0.267517,0.048229,0.000000,0.695305,0.137409,0.000000
3.140000,0.189583,0.345084,-1.486102,1.296126,-0.285213,0.034183,-0.468087,2.656762,0.379389,-1.158477,6.276506,1.540709,11.958554,-41.765699,8.372075,0.274279,0.049594,0.000000,0.656868,0.125747,0.000000
3.150000,0.202521,0.342366,-1.485741,1.291390,-0.258338,0.038056,-0.479076,2.717417,0.395213,-1.039527,5.852325,1.623755,11.826825,-43.051862,8.219120,0.280652,0.050842,0.000000,0.617471,0.114231,0.000000
3.160000,0.215411,0.339919,-1.485340,1.286549,-0.230878,0.042090,-0.488880,2.773754,0.411874,-0.921791,5.414658,1.706255,11.661889,-44.193674,7.917230,0.286625,0.051972,0.000000,0.577098,0.102862,0.000000
3.170000,0.228252,0.337750,-1.484898,1.281616,-0.202877,0.046295,-0.497517,2.825674,0.429326,-0.806107,4.967497,1.783454,11.470781,-45.218967,7.503988,0.292191,0.052987,0.000000,0.535969,0.091688,-0.000000
3.180000,0.241043,0.335863,-1.484414,1.276602,-0.174380,0.050679,-0.505008,2.873072,0.447528,-0.692460,4.510675,1.855960,11.254488,-46.125476,6.978312,0.297341,0.053887,0.000000,0.494043,0.080704,0.000000
3.190000,0.253783,0.334264,-1.483884,1.271519,-0.145431,0.055248,-0.511374,2.915859,0.466426,-0.581097,4.045391,1.922642,11.013999,-46.910938,6.339119,0.302069,0.054676,0.000000,0.451357,0.069919,0.000000
3.200000,0.266473,0.332956,-1.483308,1.266378,-0.116078,0.060009,-0.516639,2.953956,0.485957,-0.472257,3.572867,1.982360,10.750300,-47.573090,5.585326,0.306366,0.055353,0.000000,0.407944,0.059341,-0.000000
3.210000,0.279111,0.331944,-1.482683,1.261190,-0.086368,0.064969,-0.520828,2.987292,0.506065,-0.366073,3.093967,2.035713,10.462037,-48.100045,4.671647,0.310226,0.055921,0.000000,0.363851,0.048978,0.000000
3.220000,0.291697,0.331230,-1.482008,1.255965,-0.056348,0.070132,-0.523970,3.015820,0.526639,-0.262981,2.610859,2.077396,10.152826,-48.500343,3.646615,0.313641,0.056382,0.000000,0.319062,0.038837,-0.000000
3.230000,0.304230,0.330817,-1.481280,1.250714,-0.026068,0.075503,-0.526098,3.039498,0.547577,-0.163082,2.124386,2.108289,9.823941,-48.772898,2.514561,0.316605,0.056738,0.000000,0.273623,0.028924,0.000000
3.240000,0.316711,0.330709,-1.480497,1.245447,0.004425,0.081084,-0.527243,3.058300,0.568765,-0.066564,1.635830,2.127345,9.476656,-48.916626,1.279814,0.319111,0.056992,0.000000,0.227562,0.019247,-0.000000
3.250000,0.329139,0.330907,-1.479658,1.240172,0.035082,0.086878,-0.527441,3.072212,0.590081,0.026394,1.146486,2.133557,9.112246,-48.930442,-0.053295,0.321154,0.057144,0.000000,0.180910,0.009813,0.000000
3.260000,0.341514,0.331411,-1.478759,1.234901,0.065853,0.092885,-0.526728,3.081232,0.611413,0.115593,0.657654,2.128010,8.732873,-48.813149,-1.532090,0.322728,0.057199,0.000000,0.133770,0.000643,0.000000
3.270000,0.353837,0.332224,-1.477799,1.229641,0.096690,0.099105,-0.525142,3.085371,0.632591,0.200963,0.170658,2.104944,8.338813,-48.563789,-3.094262,0.323828,0.057159,0.000000,0.086025,-0.008290,0.000000
3.280000,0.366107,0.333345,-1.476776,1.224401,0.127545,0.105536,-0.522722,3.084655,0.653458,0.282324,-0.313178,2.065883,7.931233,-48.181291,-4.729157,0.324447,0.057025,0.000000,0.037803,-0.016961,-0.000000
3.290000,0.378325,0.334775,-1.475688,1.219189,0.158367,0.112173,-0.519509,3.079123,0.673853,0.359547,-0.792520,2.010154,7.511298,-47.664583,-6.426119,0.324582,0.056802,0.000000,-0.010833,-0.025360,-0.000000
3.300000,0.390491,0.336512,-1.474532,1.214013,0.189111,0.119011,-0.515545,3.068824,0.693604,0.432513,-1.266019,1.937189,7.080174,-47.012594,-8.174493,0.324229,0.056491,0.000000,-0.059807,-0.033474,-0.000000
3.310000,0.402605,0.338556,-1.473307,1.208880,0.219728,0.126042,-0.510874,3.053829,0.712552,0.501100,-1.732107,1.847887,6.639435,-46.229572,-9.997958,0.323386,0.056097,0.000000,-0.108960,-0.041281,-0.000000
3.320000,0.414669,0.340906,-1.472011,1.203798,0.250172,0.133258,-0.505538,3.034211,0.730500,0.565253,-2.189913,1.738676,6.189787,-45.308477,-11.847321,0.322050,0.055622,0.000000,-0.158341,-0.048790,0.000000
3.330000,0.426682,0.343559,-1.470641,1.198772,0.280397,0.140648,-0.499584,3.010063,0.747264,0.624870,-2.637810,1.610904,5.732345,-44.247585,-13.707724,0.320219,0.055069,0.000000,-0.207746,-0.055974,-0.000000
3.340000,0.438644,0.346513,-1.469197,1.193808,0.310359,0.148199,-0.493056,2.981492,0.762656,0.679878,-3.074393,1.464534,5.268225,-43.045174,-15.564305,0.317895,0.054443,0.000000,-0.257027,-0.062815,0.000000
3.350000,0.450558,0.349765,-1.467677,1.188912,0.340013,0.155896,-0.486002,2.948618,0.776493,0.730216,-3.498236,1.299680,4.798541,-41.699523,-17.402207,0.315080,0.053748,0.000000,-0.306011,-0.069295,-0.000000
3.360000,0.462423,0.353312,-1.466079,1.184090,0.369318,0.163723,-0.478467,2.911549,0.788594,0.775914,-3.910260,1.117053,4.322383,-40.149306,-19.217963,0.311774,0.052987,0.000000,-0.354729,-0.075399,-0.000000
3.370000,0.474240,0.357150,-1.464402,1.179344,0.398231,0.171661,-0.470499,2.870467,0.798774,0.816744,-4.303419,0.915995,3.843140,-38.459701,-20.983925,0.307988,0.052165,0.000000,-0.402439,-0.081093,-0.000000
3.380000,0.486010,0.361275,-1.462645,1.174681,0.426714,0.179691,-0.462148,2.825539,0.806856,0.852771,-4.679008,0.697595,3.362175,-36.636286,-22.683840,0.303729,0.051287,0.000000,-0.449160,-0.086361,0.000000
3.390000,0.497734,0.365683,-1.460808,1.170103,0.454730,0.187791,-0.453460,2.776949,0.812671,0.883986,-5.035717,0.462593,2.880852,-34.684637,-24.301454,0.299009,0.050357,0.000000,-0.494649,-0.091183,0.000000
3.400000,0.509412,0.370368,-1.458889,1.165613,0.482242,0.195936,-0.444484,2.724892,0.816056,0.910392,-5.372292,0.211894,2.400534,-32.610329,-25.820511,0.293841,0.049380,0.000000,-0.538651,-0.095536,0.000000
3.410000,0.521047,0.375326,-1.456889,1.161214,0.509217,0.204104,-0.435268,2.669549,0.816843,0.932064,-5.689891,-0.054940,1.921098,-30.359382,-27.186738,0.288238,0.048362,0.000000,-0.581183,-0.099416,-0.000000
3.420000,0.532637,0.380551,-1.454807,1.156908,0.535624,0.212265,-0.425859,2.611171,0.814914,0.948893,-5.981791,-0.333116,1.445576,-28.004221,-28.426556,0.282224,0.047308,0.000000,-0.621294,-0.102770,-0.000000
3.430000,0.544185,0.386037,-1.452644,1.152697,0.561432,0.220392,-0.416306,2.549993,0.810142,0.960993,-6.249671,-0.623011,0.975512,-25.557716,-29.528367,0.275820,0.046224,0.000000,-0.659039,-0.105598,-0.000000
3.440000,0.555691,0.391777,-1.450400,1.148582,0.586615,0.228458,-0.406655,2.486261,0.802419,0.968427,-6.492684,-0.923185,0.512453,-23.032736,-30.480571,0.269052,0.045115,0.000000,-0.694158,-0.107885,-0.000000
3.450000,0.567157,0.397767,-1.448075,1.144564,0.611149,0.236431,-0.396952,2.420225,0.791649,0.971271,-6.710107,-1.232085,0.057943,-20.442149,-31.271571,0.261947,0.043988,0.000000,-0.726405,-0.109621,0.000000
3.460000,0.578583,0.403998,-1.445671,1.140643,0.635013,0.244281,-0.387245,2.352133,0.777727,0.969581,-6.902553,-1.550539,-0.385498,-17.768454,-31.826666,0.254532,0.042847,0.000000,-0.755738,-0.110807,-0.000000
3.470000,0.589970,0.410465,-1.443190,1.136819,0.658186,0.251975,-0.377575,2.282264,0.760623,0.963556,-7.066712,-1.870846,-0.817418,-15.058608,-32.205086,0.246843,0.041700,0.000000,-0.781492,-0.111421,-0.000000
3.480000,0.601320,0.417159,-1.440633,1.133091,0.680653,0.259483,-0.367988,2.210889,0.740300,0.953275,-7.203660,-2.194039,-1.236391,-12.329200,-32.402958,0.238914,0.040551,0.000000,-0.803710,-0.111473,-0.000000
3.490000,0.612632,0.424075,-1.438001,1.129459,0.702400,0.266771,-0.358523,2.138282,0.716739,0.938876,-7.313286,-2.518291,-1.640991,-9.596817,-32.416411,0.230781,0.039407,0.000000,-0.822249,-0.110969,0.000000
3.500000,0.623909,0.431205,-1.435298,1.125920,0.723416,0.273807,-0.349223,2.064714,0.689937,0.920508,-7.395642,-2.841739,-2.029793,-6.878047,-32.241571,0.222482,0.038273,0.000000,-0.837004,-0.109921,0.000000
3.510000,0.635151,0.438541,-1.432526,1.122474,0.743692,0.280559,-0.340127,1.990465,0.659885,0.898210,-7.450423,-3.165068,-2.398144,-4.202735,-31.809242,0.214054,0.037155,0.000000,-0.847911,-0.108338,0.000000
3.520000,0.646359,0.446076,-1.429688,1.119117,0.763223,0.286995,-0.331271,1.915794,0.626653,0.872462,-7.479255,-3.480214,-2.748240,-1.572587,-31.188876,0.205536,0.036057,0.000000,-0.854940,-0.106250,0.000000
3.530000,0.657534,0.453803,-1.426787,1.115848,0.782007,0.293082,-0.322689,1.840966,0.590304,0.843309,-7.482075,-3.788233,-3.079050,0.997432,-30.384600,0.196968,0.034986,0.000000,-0.858119,-0.103676,-0.000000
3.540000,0.668676,0.461714,-1.423827,1.112662,0.800043,0.298791,-0.314416,1.766237,0.550918,0.810949,-7.459557,-4.087306,-3.389541,3.492356,-29.400541,0.188387,0.033944,0.000000,-0.857512,-0.100643,-0.000000
3.550000,0.679787,0.469802,-1.420813,1.109558,0.817333,0.304091,-0.306480,1.691857,0.508594,0.775590,-7.412528,-4.375658,-3.678685,5.897223,-28.240827,0.179830,0.032938,0.000000,-0.853225,-0.097185,0.000000
3.560000,0.690868,0.478058,-1.417747,1.106531,0.833881,0.308954,-0.298915,1.618089,0.463422,0.737229,-7.339822,-4.653816,-3.939879,8.142995,-26.852373,0.171336,0.031970,0.000000,-0.845219,-0.093317,-0.000000
3.570000,0.701918,0.486477,-1.414635,1.103579,0.849697,0.313351,-0.291744,1.545134,0.415567,0.696619,-7.247632,-4.914725,-4.178344,10.275401,-25.303524,0.162937,0.031045,0.000000,-0.834110,-0.089116,0.000000
3.580000,0.712939,0.495050,-1.411482,1.100695,0.864788,0.317257,-0.284991,1.473205,0.365182,0.653739,-7.134720,-5.159389,-4.393732,12.286098,-23.605411,0.154664,0.030165,0.000000,-0.819903,-0.084600,-0.000000
3.590000,0.723932,0.503770,-1.408292,1.097877,0.879165,0.320647,-0.278676,1.402504,0.312438,0.608823,-7.002343,-5.386373,-4.585695,14.166741,-21.769166,0.146548,0.029333,0.000000,-0.802832,-0.079810,-0.000000
3.600000,0.734897,0.512631,-1.405071,1.095120,0.892842,0.323498,-0.272820,1.333219,0.257518,0.562105,-6.851846,-5.594349,-4.753883,15.908988,-19.805924,0.138616,0.028552,0.000000,-0.783152,-0.074784,-0.000000
3.610000,0.745835,0.521625,-1.401824,1.092419,0.905834,0.325791,-0.267442,1.265547,0.200606,0.513556,-6.682438,-5.783247,-4.891139,17.448560,-17.697955,0.130895,0.027824,0.000000,-0.760923,-0.069539,0.000000
3.620000,0.756746,0.530745,-1.398557,1.089770,0.918158,0.327505,-0.262553,1.199619,0.141925,0.464057,-6.500872,-5.949259,-5.004757,18.839898,-15.488787,0.123404,0.027150,0.000000,-0.736928,-0.064170,-0.000000
3.630000,0.767630,0.539986,-1.395276,1.087167,0.929833,0.328624,-0.258165,1.135573,0.081696,0.413538,-6.306139,-6.092735,-5.095221,20.081507,-13.193086,0.116162,0.026531,0.000000,-0.711211,-0.058689,0.000000
3.640000,0.778489,0.549340,-1.391986,1.084605,0.940876,0.329134,-0.254285,1.073535,0.020148,0.362228,-6.099746,-6.212881,-5.163016,21.171892,-10.825517,0.109185,0.025969,0.000000,-0.684054,-0.053130,-0.000000
3.650000,0.789323,0.558801,-1.388695,1.082079,0.951310,0.329024,-0.250922,1.013612,-0.042482,0.310351,-5.883211,-6.309054,-5.208627,22.109560,-8.400748,0.102485,0.025462,0.000000,-0.655733,-0.047527,0.000000
3.660000,0.800131,0.568364,-1.385408,1.079585,0.961156,0.328282,-0.248081,0.955917,-0.105952,0.258005,-5.656453,-6.380767,-5.229433,22.852212,-5.933119,0.096075,0.025013,0.000000,-0.626356,-0.041898,0.000000
3.670000,0.810914,0.578022,-1.382131,1.077116,0.970436,0.326903,-0.245762,0.900505,-0.170015,0.205694,-5.424847,-6.427638,-5.229405,23.444154,-3.437663,0.089960,0.024620,0.000000,-0.596567,-0.036301,-0.000000
3.680000,0.821673,0.587771,-1.378872,1.074668,0.979174,0.324881,-0.243966,0.847437,-0.234421,0.153483,-5.188061,-6.449477,-5.209409,23.888887,-0.929083,0.084145,0.024284,0.000000,-0.566424,-0.030749,-0.000000
3.690000,0.832408,0.597604,-1.375636,1.072235,0.987393,0.322214,-0.242691,0.796756,-0.298920,0.101569,-4.947548,-6.446225,-5.170310,24.189915,1.577913,0.078632,0.024003,0.000000,-0.536152,-0.025264,0.000000
3.700000,0.843118,0.607517,-1.372430,1.069812,0.995117,0.318903,-0.241933,0.748494,-0.363262,0.050138,-4.704730,-6.417973,-5.112972,24.350738,4.068619,0.073422,0.023777,0.000000,-0.505960,-0.019866,-0.000000
3.710000,0.853804,0.617505,-1.369260,1.067394,1.002370,0.314950,-0.241688,0.702683,-0.427188,-0.000759,-4.459359,-6.364064,-5.035062,24.333670,6.505796,0.068514,0.023604,0.000000,-0.475877,-0.014560,-0.000000
3.720000,0.864466,0.627563,-1.366133,1.064977,1.009178,0.310361,-0.241946,0.659304,-0.490463,-0.050653,-4.216645,-6.286994,-4.941036,24.188446,8.900030,0.063902,0.023485,0.000000,-0.446466,-0.009395,0.000000
3.730000,0.875103,0.637687,-1.363055,1.062554,1.015564,0.305143,-0.242698,0.618343,-0.552849,-0.099530,-3.975988,-6.186247,-4.832151,23.923611,11.239376,0.059582,0.023416,0.000000,-0.417690,-0.004366,-0.000000
3.740000,0.885717,0.647873,-1.360032,1.060121,1.021553,0.299308,-0.243932,0.579773,-0.614111,-0.147250,-3.738543,-6.062430,-4.709665,23.547708,13.511885,0.055546,0.023397,0.000000,-0.389679,0.000515,0.000000
3.750000,0.896306,0.658117,-1.357071,1.057674,1.027167,0.292866,-0.245638,0.543558,-0.674023,-0.193683,-3.505376,-5.916271,-4.574833,23.069286,15.705613,0.051786,0.023425,0.000000,-0.362544,0.005242,0.000000
3.760000,0.906870,0.668415,-1.354177,1.055207,1.032431,0.285832,-0.247802,0.509657,-0.732349,-0.238739,-3.276677,-5.747179,-4.428193,22.476854,17.772213,0.048293,0.023501,0.000000,-0.336298,0.009815,-0.000000
3.770000,0.917410,0.678764,-1.351356,1.052716,1.037368,0.278224,-0.250408,0.478003,-0.788899,-0.282246,-3.055221,-5.559530,-4.271810,21.801444,19.740593,0.045056,0.023621,0.000000,-0.311210,0.014215,0.000000
3.780000,0.927925,0.689161,-1.348614,1.050197,1.041999,0.270060,-0.253441,0.448529,-0.843476,-0.324147,-2.840888,-5.352719,-4.107030,21.054057,21.603265,0.042065,0.023785,0.000000,-0.287245,0.018447,0.000000
3.790000,0.938414,0.699603,-1.345957,1.047646,1.046345,0.261362,-0.256885,0.421159,-0.895893,-0.364363,-2.634343,-5.127842,-3.935199,20.245689,23.352739,0.039307,0.023990,0.000000,-0.264443,0.022511,0.000000
3.800000,0.948877,0.710087,-1.343389,1.045058,1.050429,0.252150,-0.260723,0.395814,-0.945976,-0.402832,-2.436141,-4.886067,-3.757661,19.387340,24.981524,0.036772,0.024235,0.000000,-0.242832,0.026407,0.000000
3.810000,0.959315,0.720611,-1.340915,1.042430,1.054268,0.242450,-0.264934,0.372397,-0.993544,-0.439361,-2.247652,-4.626988,-3.579321,18.513394,26.440449,0.034446,0.024518,0.000000,-0.222505,0.030129,-0.000000
3.820000,0.969726,0.731172,-1.338541,1.039758,1.057883,0.232288,-0.269504,0.350831,-1.038470,-0.474248,-2.067020,-4.355832,-3.397530,17.608600,27.768810,0.032318,0.024837,0.000000,-0.203272,0.033703,0.000000
3.830000,0.980110,0.741768,-1.336271,1.037039,1.061291,0.221690,-0.274413,0.331026,-1.080619,-0.507303,-1.895556,-4.072055,-3.213197,16.681092,28.964221,0.030377,0.025192,0.000000,-0.185218,0.037120,-0.000000
3.840000,0.990466,0.752397,-1.334109,1.034269,1.064509,0.210685,-0.279644,0.312889,-1.119873,-0.538506,-1.733447,-3.776999,-3.027232,15.739006,30.024295,0.028610,0.025580,0.000000,-0.168326,0.040385,0.000000
3.850000,1.000795,0.763058,-1.332059,1.031445,1.067554,0.199302,-0.285177,0.296326,-1.156126,-0.567845,-1.580797,-3.472028,-2.840545,14.790475,30.946647,0.027006,0.025999,0.000000,-0.152576,0.043503,0.000000
3.860000,1.011095,0.773748,-1.330124,1.028564,1.070441,0.187572,-0.290994,0.281235,-1.189271,-0.595237,-1.438211,-3.157243,-2.656075,13.858266,31.696319,0.025554,0.026450,0.000000,-0.137987,0.046474,-0.000000
3.870000,1.021366,0.784466,-1.328308,1.025624,1.073183,0.175527,-0.297076,0.267530,-1.219248,-0.620879,-1.304259,-2.837110,-2.472454,12.934091,32.307484,0.024243,0.026929,0.000000,-0.124408,0.049315,-0.000000
3.880000,1.031607,0.795211,-1.326614,1.022622,1.075796,0.163198,-0.303405,0.255119,-1.245995,-0.644692,-1.179481,-2.511550,-2.290342,12.024293,32.781745,0.023062,0.027436,0.000000,-0.111856,0.052024,-0.000000
3.890000,1.041818,0.805982,-1.325045,1.019555,1.078290,0.150618,-0.309964,0.243911,-1.269466,-0.666693,-1.063704,-2.181926,-2.110401,11.135216,33.120704,0.022003,0.027969,0.000000,-0.100288,0.054608,-0.000000
3.900000,1.051998,0.816777,-1.323603,1.016422,1.080678,0.137820,-0.316733,0.233816,-1.289625,-0.686909,-0.956687,-1.849582,-1.933292,10.273202,33.325964,0.021054,0.028528,0.000000,-0.089659,0.057072,0.000000
3.910000,1.062147,0.827595,-1.322289,1.013220,1.082970,0.124837,-0.323694,0.224735,-1.306443,-0.705241,-0.859385,-1.514922,-1.762942,9.476331,33.375772,0.020205,0.029110,0.000000,-0.080031,0.059411,-0.000000
3.920000,1.072262,0.838436,-1.321106,1.009948,1.085176,0.111702,-0.330832,0.216602,-1.319924,-0.722035,-0.768457,-1.181449,-1.596346,8.715324,33.297944,0.019450,0.029716,0.000000,-0.071087,0.061652,-0.000000
3.930000,1.082345,0.849298,-1.320056,1.006603,1.087305,0.098449,-0.338130,0.209341,-1.330076,-0.737182,-0.684950,-0.849374,-1.433765,7.992639,33.096943,0.018781,0.030343,0.000000,-0.062903,0.063790,0.000000
3.940000,1.092394,0.860182,-1.319138,1.003185,1.089365,0.085111,-0.345571,0.202880,-1.336920,-0.750724,-0.608469,-0.519906,-1.275461,7.310734,32.777231,0.018190,0.030992,0.000000,-0.055427,0.065828,-0.000000
3.950000,1.102409,0.871085,-1.318354,0.999691,1.091365,0.071722,-0.353139,0.197150,-1.340487,-0.762706,-0.538592,-0.194210,-1.121696,6.672066,32.343269,0.017670,0.031660,0.000000,-0.048608,0.067771,0.000000
3.960000,1.112388,0.882009,-1.317703,0.996121,1.093311,0.058312,-0.360819,0.192077,-1.340815,-0.773086,-0.475900,0.127098,-0.974945,6.104987,31.786786,0.017215,0.032347,0.000000,-0.042486,0.069616,0.000000
3.970000,1.122331,0.892951,-1.317187,0.992474,1.095209,0.044916,-0.368596,0.187614,-1.337965,-0.782122,-0.417498,0.441748,-0.832983,5.582889,31.126537,0.016819,0.033052,0.000000,-0.036793,0.071380,0.000000
3.980000,1.132237,0.903913,-1.316805,0.988749,1.097065,0.031563,-0.376456,0.183710,-1.332004,-0.789762,-0.364095,0.749303,-0.695800,5.105060,30.368542,0.016477,0.033774,0.000000,-0.031583,0.073060,-0.000000
3.990000,1.142106,0.914892,-1.316556,0.984945,1.098885,0.018286,-0.384387,0.180317,-1.323006,-0.796054,-0.315252,1.048813,-0.563386,4.670784,29.518824,0.016186,0.034513,0.000000,-0.026810,0.074658,-0.000000
4.000000,1.151936,0.925890,-1.316439,0.981061,1.100673,0.005113,-0.392373,0.177391,-1.311057,-0.801045,-0.270536,1.339393,-0.435731,4.279350,28.583404,0.015940,0.035267,0.000000,-0.022429,0.076174,-0.000000
4.010000,1.161727,0.936906,-1.316453,0.977097,1.102434,-0.007926,-0.400403,0.174886,-1.296249,-0.804739,-0.230203,1.620389,-0.313978,3.947201,27.563926,0.015735,0.036036,0.000000,-0.018457,0.077608,-0.000000
4.020000,1.171477,0.947939,-1.316597,0.973053,1.104172,-0.020803,-0.408464,0.172777,-1.278685,-0.807289,-0.192227,1.890624,-0.196823,3.654365,26.471325,0.015570,0.036819,0.000000,-0.014711,0.078967,-0.000000
4.030000,1.181187,0.958989,-1.316868,0.968928,1.105891,-0.033491,-0.416545,0.171033,-1.258474,-0.808690,-0.156994,2.149594,-0.084114,3.398028,25.312157,0.015440,0.037616,0.000000,-0.011219,0.080248,-0.000000
4.040000,1.190856,0.970057,-1.317266,0.964722,1.107594,-0.045964,-0.424634,0.169629,-1.235732,-0.808986,-0.124154,2.396667,0.024299,3.175377,24.092978,0.015344,0.038424,0.000000,-0.007948,0.081451,-0.000000
4.050000,1.200481,0.981141,-1.317787,0.960435,1.109285,-0.058197,-0.432721,0.168543,-1.210582,-0.808218,-0.093384,2.631275,0.128569,2.983597,22.820346,0.015280,0.039245,0.000000,-0.004867,0.082575,-0.000000
4.060000,1.210064,0.992242,-1.318429,0.956068,1.110966,-0.070168,-0.440795,0.167753,-1.183151,-0.806419,-0.064630,2.852851,0.228622,2.825977,21.502483,0.015246,0.040076,0.000000,-0.001968,0.083618,0.000000
4.070000,1.219603,1.003360,-1.319189,0.951620,1.112641,-0.081853,-0.448846,0.167245,-1.153570,-0.803648,-0.037055,3.061115,0.324862,2.692852,20.144077,0.015241,0.040917,0.000000,0.000826,0.084581,0.000000
4.080000,1.229096,1.014495,-1.320065,0.947091,1.114312,-0.093232,-0.456865,0.167007,-1.121974,-0.799933,-0.010704,3.255619,0.417466,2.580661,18.751481,0.015262,0.041767,0.000000,0.003512,0.085460,0.000000
4.090000,1.238544,1.025647,-1.321053,0.942482,1.115982,-0.104286,-0.464842,0.167028,-1.088504,-0.795310,0.014616,3.436052,0.506613,2.485843,17.331049,0.015311,0.042626,0.000000,0.006110,0.086254,-0.000000
4.100000,1.247946,1.036815,-1.322150,0.937794,1.117653,-0.114997,-0.472768,0.167297,-1.053301,-0.789812,0.039059,3.602168,0.592481,2.404837,15.889132,0.015384,0.043492,0.000000,0.008634,0.086960,-0.000000
4.110000,1.257300,1.048000,-1.323352,0.933027,1.119328,-0.125347,-0.480635,0.167808,-1.016512,-0.783487,0.062891,3.753549,0.675661,2.330433,14.438027,0.015483,0.044365,0.000000,0.011109,0.087576,-0.000000
4.120000,1.266606,1.059201,-1.324655,0.928182,1.121010,-0.135322,-0.488435,0.168552,-0.978279,-0.776327,0.085854,3.890632,0.755870,2.263164,12.977417,0.015606,0.045244,0.000000,0.013513,0.088097,-0.000000
4.130000,1.275863,1.070420,-1.326057,0.923259,1.122700,-0.144908,-0.496159,0.169523,-0.938748,-0.768379,0.108168,4.013084,0.833234,2.199915,11.512928,0.015753,0.046127,0.000000,0.015866,0.088520,-0.000000
4.140000,1.285071,1.081655,-1.327552,0.918259,1.124401,-0.154093,-0.503800,0.170714,-0.898066,-0.759672,0.129856,4.120896,0.907882,2.137572,10.050185,0.015924,0.047014,0.000000,0.018171,0.088842,0.000000
4.150000,1.294228,1.092908,-1.329137,0.913183,1.126115,-0.162866,-0.511350,0.172118,-0.856379,-0.750230,0.150912,4.214113,0.979943,2.073019,8.594814,0.016117,0.047904,0.000000,0.020426,0.089060,0.000000
4.160000,1.303334,1.104178,-1.330808,0.908032,1.127844,-0.171218,-0.518803,0.173734,-0.813836,-0.740107,0.171686,4.292479,1.050210,1.993343,7.161459,0.016332,0.048795,0.000000,0.022664,0.089171,0.000000
4.170000,1.312388,1.115465,-1.332560,0.902807,1.129590,-0.179140,-0.526150,0.175549,-0.770577,-0.729264,0.191192,4.356998,1.118064,1.906427,5.745623,0.016570,0.049687,0.000000,0.024791,0.089170,-0.000000
4.180000,1.321390,1.126770,-1.334389,0.897510,1.131356,-0.186627,-0.533386,0.177555,-0.726743,-0.717754,0.209784,4.407465,1.183550,1.810357,4.351827,0.016828,0.050578,0.000000,0.026841,0.089053,-0.000000
4.190000,1.330338,1.138092,-1.336291,0.892140,1.133142,-0.193674,-0.540503,0.179741,-0.682473,-0.705601,0.227362,4.444123,1.246716,1.703217,2.984593,0.017106,0.051468,0.000000,0.028800,0.088818,-0.000000
4.200000,1.339233,1.149433,-1.338261,0.886700,1.134951,-0.200276,-0.547496,0.182098,-0.637905,-0.692827,0.243805,4.467260,1.307606,1.583091,1.648442,0.017404,0.052355,0.000000,0.030655,0.088462,-0.000000
4.210000,1.348072,1.160791,-1.340295,0.881191,1.136784,-0.206431,-0.554358,0.184618,-0.593177,-0.679479,0.259447,4.476769,1.366853,1.436126,0.359047,0.017719,0.053237,0.000000,0.032437,0.087982,-0.000000
4.220000,1.356856,1.172168,-1.342389,0.875613,1.138644,-0.212139,-0.561083,0.187282,-0.548412,-0.665524,0.273010,4.474072,1.423846,1.273808,-0.891587,0.018052,0.054114,0.000000,0.034019,0.087375,-0.000000
4.230000,1.365584,1.183564,-1.344537,0.869969,1.140531,-0.217400,-0.567666,0.190073,-0.503736,-0.651010,0.284871,4.459077,1.478560,1.095683,-2.100306,0.018399,0.054984,0.000000,0.035435,0.086640,-0.000000
4.240000,1.374255,1.194979,-1.346735,0.864260,1.142446,-0.222215,-0.574102,0.192973,-0.459270,-0.635960,0.294869,4.432217,1.530970,0.901298,-3.263953,0.018760,0.055847,0.000000,0.036664,0.085774,0.000000
4.250000,1.382869,1.206413,-1.348979,0.858488,1.144390,-0.226586,-0.580384,0.195963,-0.415130,-0.620398,0.302841,4.393958,1.581050,0.690199,-4.379373,0.019132,0.056700,0.000000,0.037686,0.084776,-0.000000
4.260000,1.391425,1.217867,-1.351265,0.852653,1.146365,-0.230519,-0.586508,0.199027,-0.371433,-0.604359,0.309036,4.344317,1.629078,0.451324,-5.431208,0.019513,0.057542,0.000000,0.038521,0.083645,-0.000000
4.270000,1.399922,1.229341,-1.353588,0.846758,1.148371,-0.234017,-0.592470,0.202136,-0.328278,-0.587838,0.312287,4.284966,1.674689,0.196128,-6.429999,0.019901,0.058372,0.000000,0.039051,0.082384,0.000000
4.280000,1.408360,1.240834,-1.355944,0.840804,1.150408,-0.237086,-0.598263,0.205264,-0.285766,-0.570874,0.312907,4.215900,1.717820,-0.074542,-7.374084,0.020293,0.059190,0.000000,0.039301,0.080991,-0.000000
4.290000,1.416738,1.252349,-1.358329,0.834794,1.152476,-0.239734,-0.603886,0.208385,-0.243990,-0.553490,0.310747,4.137673,1.758408,-0.359841,-8.261801,0.020686,0.059992,0.000000,0.039251,0.079467,0.000000
4.300000,1.425056,1.263884,-1.360738,0.828727,1.154575,-0.241969,-0.609332,0.211469,-0.203041,-0.535714,0.305664,4.050857,1.796391,-0.658922,-9.091489,0.021077,0.060779,0.000000,0.038881,0.077815,-0.000000
4.310000,1.433312,1.275440,-1.363167,0.822608,1.156705,-0.243798,-0.614599,0.214491,-0.163005,-0.517570,0.297803,3.955569,1.831674,-0.977945,-9.849546,0.021463,0.061548,0.000000,0.038200,0.076033,0.000000
4.320000,1.441508,1.287018,-1.365612,0.816436,1.158865,-0.245232,-0.619682,0.217414,-0.123954,-0.499088,0.286381,3.853533,1.864230,-1.308200,-10.547713,0.021840,0.062299,0.000000,0.037127,0.074133,0.000000
4.330000,1.449641,1.298618,-1.368070,0.810215,1.161053,-0.246281,-0.624579,0.220207,-0.085957,-0.480295,0.271607,3.744815,1.894001,-1.647984,-11.185790,0.022204,0.063031,0.000000,0.035677,0.072113,0.000000
4.340000,1.457712,1.310239,-1.370537,0.803945,1.163268,-0.246955,-0.629287,0.222835,-0.049078,-0.461218,0.253395,3.630018,1.920930,-1.995593,-11.763578,0.022552,0.063742,0.000000,0.033836,0.069979,0.000000
4.350000,1.465720,1.321883,-1.373008,0.797629,1.165509,-0.247266,-0.633803,0.225263,-0.013375,-0.441886,0.231675,3.509745,1.944958,-2.349323,-12.280877,0.022880,0.064431,0.000000,0.031595,0.067735,-0.000000
4.360000,1.473664,1.333550,-1.375481,0.791270,1.167773,-0.247226,-0.638124,0.227458,0.021097,-0.422316,0.206495,3.384194,1.965722,-2.710016,-12.727169,0.023183,0.065096,0.000000,0.028952,0.065384,0.000000
4.370000,1.481545,1.345239,-1.377951,0.784868,1.170057,-0.246848,-0.642249,0.229381,0.054295,-0.402568,0.177580,3.254940,1.983506,-3.073111,-13.113838,0.023457,0.065738,0.000000,0.025880,0.062940,-0.000000
4.380000,1.489361,1.356951,-1.380417,0.778425,1.172359,-0.246145,-0.646175,0.230997,0.086183,-0.382656,0.145031,3.122113,1.998287,-3.436593,-13.441946,0.023699,0.066355,0.000000,0.022385,0.060405,-0.000000
4.390000,1.497113,1.368686,-1.382873,0.771945,1.174676,-0.245129,-0.649901,0.232270,0.116728,-0.362612,0.108854,2.986293,2.010044,-3.798445,-13.712557,0.023904,0.066946,0.000000,0.018467,0.057788,0.000000
4.400000,1.504800,1.380444,-1.385318,0.765428,1.177004,-0.243815,-0.653427,0.233162,0.145901,-0.342466,0.069074,2.848050,2.018757,-4.156653,-13.926736,0.024067,0.067511,0.000000,0.014127,0.055095,-0.000000
4.410000,1.512422,1.392226,-1.387749,0.758877,1.179338,-0.242216,-0.656750,0.233639,0.173679,-0.322230,0.025679,2.707642,2.023963,-4.507684,-14.077954,0.024185,0.068048,0.000000,0.009364,0.052331,0.000000
4.420000,1.519978,1.404031,-1.390162,0.752294,1.181675,-0.240346,-0.659871,0.233664,0.200050,-0.301977,-0.021122,2.566329,2.026135,-4.851226,-14.175796,0.024253,0.068558,0.000000,0.004200,0.049512,-0.000000
4.430000,1.527468,1.415860,-1.392555,0.745680,1.184010,-0.238219,-0.662790,0.233205,0.225003,-0.281717,-0.071314,2.424297,2.025306,-5.185449,-14.222258,0.024267,0.069039,0.000000,-0.001361,0.046644,-0.000000
4.440000,1.534891,1.427711,-1.394925,0.739038,1.186337,-0.235850,-0.665506,0.232227,0.248535,-0.261481,-0.124794,2.282049,2.021508,-5.508521,-14.219333,0.024224,0.069491,0.000000,-0.007307,0.043735,0.000000
4.450000,1.542248,1.439586,-1.397271,0.732371,1.188652,-0.233253,-0.668019,0.230699,0.270645,-0.241297,-0.181441,2.140068,2.014774,-5.818614,-14.169014,0.024120,0.069914,0.000000,-0.013623,0.040793,-0.000000
4.460000,1.549538,1.451484,-1.399589,0.725679,1.190949,-0.230442,-0.670332,0.228586,0.291337,-0.221178,-0.241289,1.998650,2.004701,-6.109541,-14.069013,0.023951,0.070307,0.000000,-0.020309,0.037825,-0.000000
4.470000,1.556762,1.463405,-1.401879,0.718965,1.193222,-0.227431,-0.672443,0.225863,0.310622,-0.201193,-0.303773,1.858640,1.991811,-6.384362,-13.926130,0.023713,0.070670,0.000000,-0.027301,0.034845,0.000000
4.480000,1.563918,1.475349,-1.404137,0.712231,1.195464,-0.224234,-0.674356,0.222502,0.328515,-0.181351,-0.368919,1.720262,1.976188,-6.641781,-13.742884,0.023404,0.071004,0.000000,-0.034598,0.031861,-0.000000
4.490000,1.571006,1.487314,-1.406363,0.705478,1.197670,-0.220866,-0.676071,0.218477,0.345034,-0.161678,-0.436546,1.583908,1.957919,-6.880502,-13.521793,0.023020,0.071308,0.000000,-0.042177,0.028880,-0.000000
4.500000,1.578027,1.499302,-1.408554,0.698710,1.199832,-0.217338,-0.677590,0.213763,0.360201,-0.142201,-0.506462,1.449944,1.937090,-7.099229,-13.265376,0.022559,0.071582,0.000000,-0.050012,0.025910,0.000000
4.510000,1.584980,1.511311,-1.410709,0.691927,1.201943,-0.213666,-0.678916,0.208338,0.374042,-0.122931,-0.578684,1.318671,1.913464,-7.290997,-12.975149,0.022019,0.071826,0.000000,-0.058100,0.022958,0.000000
4.520000,1.591866,1.523341,-1.412827,0.685132,1.203996,-0.209862,-0.680050,0.202184,0.386585,-0.103925,-0.652462,1.190497,1.887488,-7.460873,-12.654754,0.021397,0.072041,0.000000,-0.066356,0.020036,-0.000000
4.530000,1.598683,1.535391,-1.414906,0.678327,1.205984,-0.205938,-0.680995,0.195284,0.397863,-0.085189,-0.727827,1.065667,1.859289,-7.608253,-12.306833,0.020691,0.072227,0.000000,-0.074778,0.017149,-0.000000
4.540000,1.605432,1.547460,-1.416946,0.671513,1.207899,-0.201909,-0.681754,0.187623,0.407910,-0.066746,-0.804550,0.944443,1.828991,-7.732536,-11.934025,0.019901,0.072384,0.000000,-0.083336,0.014305,0.000000
4.550000,1.612113,1.559548,-1.418944,0.664692,1.209734,-0.197784,-0.682331,0.179189,0.416765,-0.048616,-0.882398,0.827061,1.796721,-7.833120,-11.538971,0.019024,0.072513,0.000000,-0.092000,0.011509,0.000000
4.560000,1.618726,1.571654,-1.420901,0.657867,1.211480,-0.193577,-0.682728,0.169969,0.424466,-0.030811,-0.961352,0.713797,1.762444,-7.903826,-11.126035,0.018060,0.072615,0.000000,-0.100764,0.008767,-0.000000
4.570000,1.625271,1.583778,-1.422815,0.651038,1.213131,-0.189299,-0.682948,0.159960,0.431055,-0.013366,-1.040643,0.604674,1.726465,-7.950311,-10.695924,0.017009,0.072689,0.000000,-0.109541,0.006087,-0.000000
4.580000,1.631747,1.595917,-1.424687,0.644208,1.214677,-0.184960,-0.682996,0.149155,0.436574,0.003713,-1.120278,0.499928,1.688928,-7.972656,-10.251068,0.015869,0.072737,0.000000,-0.118328,0.003471,0.000000
4.590000,1.638155,1.608071,-1.426514,0.637379,1.216111,-0.180571,-0.682875,0.137554,0.441068,0.020408,-1.200016,0.399694,1.649978,-7.970941,-9.793898,0.014642,0.072759,0.000000,-0.127095,0.000926,0.000000
4.600000,1.644494,1.620239,-1.428298,0.630551,1.217425,-0.176142,-0.682589,0.125155,0.444583,0.036708,-1.279617,0.304083,1.609761,-7.945248,-9.326842,0.013327,0.072755,0.000000,-0.135812,-0.001545,0.000000
4.610000,1.650766,1.632419,-1.430037,0.623728,1.218612,-0.171682,-0.682143,0.111961,0.447167,0.052600,-1.359019,0.213323,1.568425,-7.891165,-8.855894,0.011926,0.072728,0.000000,-0.144471,-0.003937,0.000000
4.620000,1.656969,1.644610,-1.431732,0.616909,1.219662,-0.167201,-0.681539,0.097977,0.448866,0.068073,-1.437563,0.127142,1.526110,-7.813816,-8.379485,0.010438,0.072677,0.000000,-0.152999,-0.006250,0.000000
4.630000,1.663104,1.656812,-1.433381,0.610097,1.220569,-0.162708,-0.680783,0.083213,0.449726,0.083119,-1.515220,0.045745,1.482962,-7.713829,-7.899609,0.008866,0.072603,0.000000,-0.161390,-0.008479,0.000000
4.640000,1.669171,1.669021,-1.434986,0.603294,1.221324,-0.158209,-0.679878,0.067677,0.449796,0.097730,-1.591766,-0.030845,1.439123,-7.591836,-7.418259,0.007211,0.072508,0.000000,-0.169619,-0.010624,0.000000
4.650000,1.675170,1.681238,-1.436545,0.596500,1.221920,-0.153714,-0.678829,0.051382,0.449125,0.111900,-1.666985,-0.102622,1.394738,-7.448467,-6.937429,0.005475,0.072391,0.000000,-0.177663,-0.012682,0.000000
4.660000,1.681101,1.693459,-1.438060,0.589718,1.222349,-0.149229,-0.677642,0.034341,0.447762,0.125618,-1.740781,-0.169426,1.350087,-7.281470,-6.463563,0.003658,0.072254,0.000000,-0.185511,-0.014651,-0.000000
4.670000,1.686964,1.705684,-1.439530,0.582948,1.222604,-0.144761,-0.676319,0.016572,0.445752,0.138894,-1.812678,-0.231708,1.305163,-7.094712,-5.993660,0.001765,0.072098,0.000000,-0.193112,-0.016533,0.000000
4.680000,1.692760,1.717910,-1.440955,0.576192,1.222678,-0.140316,-0.674865,-0.001906,0.443143,0.151721,-1.882612,-0.289317,1.260093,-6.889175,-5.529168,-0.000203,0.071924,0.000000,-0.200461,-0.018328,-0.000000
4.690000,1.698488,1.730137,-1.442336,0.569451,1.222564,-0.135900,-0.673286,-0.021073,0.439981,0.164096,-1.950402,-0.342314,1.215005,-6.665843,-5.071537,-0.002243,0.071732,0.000000,-0.207538,-0.020035,0.000000
4.700000,1.704149,1.742361,-1.443673,0.562727,1.222254,-0.131518,-0.671585,-0.040907,0.436312,0.176021,-2.015873,-0.390775,1.170027,-6.425699,-4.622215,-0.004353,0.071524,0.000000,-0.214328,-0.021654,-0.000000
4.710000,1.709743,1.754581,-1.444967,0.556020,1.221743,-0.127175,-0.669767,-0.061383,0.432183,0.187489,-2.078911,-0.434613,1.125494,-6.168508,-4.187152,-0.006529,0.071299,0.000000,-0.220820,-0.023184,0.000000
4.720000,1.715270,1.766795,-1.446217,0.549332,1.221025,-0.122876,-0.667836,-0.082476,0.427634,0.198523,-2.139249,-0.474353,1.081302,-5.896622,-3.762745,-0.008768,0.071060,0.000000,-0.226987,-0.024632,-0.000000
4.730000,1.720729,1.779001,-1.447425,0.542663,1.220092,-0.118624,-0.665798,-0.104159,0.422710,0.209117,-2.196799,-0.509906,1.037551,-5.611172,-3.349890,-0.011067,0.070807,0.000000,-0.232823,-0.025997,0.000000
4.740000,1.726123,1.791196,-1.448590,0.536016,1.218940,-0.114423,-0.663655,-0.126402,0.417450,0.219276,-2.251431,-0.541392,0.994346,-5.313292,-2.949487,-0.013423,0.070540,0.000000,-0.238317,-0.027280,0.000000
4.750000,1.731450,1.803379,-1.449713,0.529391,1.217562,-0.110276,-0.661414,-0.149177,0.411895,0.229006,-2.303027,-0.568940,0.951788,-5.004113,-2.562433,-0.015833,0.070262,0.000000,-0.243460,-0.028483,-0.000000
4.760000,1.736711,1.815547,-1.450795,0.522788,1.215954,-0.106186,-0.659077,-0.172452,0.406085,0.238305,-2.351471,-0.592531,0.910209,-4.684968,-2.193587,-0.018291,0.069971,0.000000,-0.248243,-0.029607,-0.000000
4.770000,1.741906,1.827697,-1.451837,0.516209,1.214112,-0.102155,-0.656649,-0.196196,0.400056,0.247203,-2.396687,-0.612684,0.869453,-4.356766,-1.839400,-0.020796,0.069670,0.000000,-0.252660,-0.030658,0.000000
4.780000,1.747035,1.839828,-1.452839,0.509655,1.212029,-0.098185,-0.654134,-0.220375,0.393843,0.255697,-2.438580,-0.629370,0.829596,-4.020615,-1.500284,-0.023343,0.069358,0.000000,-0.256706,-0.031637,0.000000
4.790000,1.752099,1.851937,-1.453801,0.503127,1.209703,-0.094279,-0.651536,-0.244956,0.387480,0.263798,-2.477077,-0.642741,0.790711,-3.677624,-1.176653,-0.025929,0.069037,0.000000,-0.260377,-0.032547,-0.000000
4.800000,1.757098,1.864022,-1.454725,0.496625,1.207129,-0.090436,-0.648859,-0.269905,0.380999,0.271515,-2.512113,-0.652956,0.752872,-3.328901,-0.868920,-0.028550,0.068707,0.000000,-0.263669,-0.033389,-0.000000
4.810000,1.762031,1.876079,-1.455610,0.490150,1.204303,-0.086659,-0.646107,-0.295186,0.374432,0.278850,-2.543590,-0.660051,0.716372,-2.976783,-0.580611,-0.031201,0.068369,0.000000,-0.266575,-0.034166,-0.000000
4.820000,1.766901,1.888107,-1.456458,0.483703,1.201224,-0.082948,-0.643284,-0.320765,0.367807,0.285836,-2.571582,-0.664483,0.681040,-2.620999,-0.308644,-0.033880,0.068024,0.000000,-0.269107,-0.034885,-0.000000
4.830000,1.771706,1.900103,-1.457269,0.477285,1.197887,-0.079303,-0.640392,-0.346606,0.361151,0.292475,-2.596001,-0.666278,0.646924,-2.262507,-0.053048,-0.036582,0.067671,0.000000,-0.271258,-0.035545,-0.000000
4.840000,1.776447,1.912064,-1.458044,0.470895,1.194291,-0.075725,-0.637435,-0.372673,0.354490,0.298779,-2.616826,-0.665599,0.614071,-1.902265,0.186144,-0.039304,0.067312,0.000000,-0.273030,-0.036152,0.000000
4.850000,1.781124,1.923987,-1.458784,0.464536,1.190433,-0.072213,-0.634417,-0.398930,0.347847,0.304761,-2.634044,-0.662610,0.582527,-1.541230,0.408902,-0.042041,0.066948,0.000000,-0.274425,-0.036706,0.000000
4.860000,1.785737,1.935871,-1.459489,0.458207,1.186312,-0.068768,-0.631341,-0.425341,0.341246,0.310427,-2.647580,-0.657389,0.552525,-1.182170,0.612998,-0.044791,0.066578,0.000000,-0.275439,-0.037211,-0.000000
4.870000,1.790288,1.947713,-1.460159,0.451909,1.181926,-0.065388,-0.628210,-0.451870,0.334706,0.315808,-2.657610,-0.650306,0.523905,-0.824011,0.800867,-0.047549,0.066203,0.000000,-0.276091,-0.037671,-0.000000
4.880000,1.794776,1.959509,-1.460797,0.445643,1.177274,-0.062073,-0.625026,-0.478481,0.328246,0.320910,-2.664065,-0.641425,0.496694,-0.467489,0.972744,-0.050312,0.065824,0.000000,-0.276379,-0.038090,0.000000
4.890000,1.799201,1.971257,-1.461401,0.439409,1.172356,-0.058823,-0.621792,-0.505139,0.321883,0.325747,-2.666967,-0.630904,0.470915,-0.113340,1.128870,-0.053075,0.065440,0.000000,-0.276305,-0.038470,0.000000
4.900000,1.803564,1.982955,-1.461973,0.433208,1.167171,-0.055635,-0.618512,-0.531809,0.315632,0.330333,-2.666343,-0.618899,0.446595,0.237699,1.269480,-0.055837,0.065053,0.000000,-0.275876,-0.038813,-0.000000
4.910000,1.807865,1.994600,-1.462514,0.427039,1.161720,-0.052510,-0.615187,-0.558454,0.309510,0.334678,-2.662147,-0.605511,0.423902,0.582893,1.393436,-0.058592,0.064663,0.000000,-0.275090,-0.039123,0.000000
4.920000,1.812105,2.006189,-1.463024,0.420904,1.156003,-0.049445,-0.611819,-0.585040,0.303526,0.338809,-2.654610,-0.591019,0.402700,0.923750,1.502522,-0.061337,0.064270,0.000000,-0.273970,-0.039403,0.000000
4.930000,1.816283,2.017719,-1.463503,0.414803,1.150020,-0.046439,-0.608411,-0.611535,0.297693,0.342737,-2.643688,-0.575508,0.382996,1.259780,1.597142,-0.064070,0.063873,0.000000,-0.272516,-0.039656,0.000000
4.940000,1.820401,2.029188,-1.463953,0.408736,1.143772,-0.043490,-0.604965,-0.637903,0.292019,0.346474,-2.629432,-0.559123,0.364798,1.590491,1.677702,-0.066786,0.063475,0.000000,-0.270733,-0.039885,-0.000000
4.950000,1.824458,2.040594,-1.464373,0.402704,1.137262,-0.040598,-0.601482,-0.664112,0.286513,0.350038,-2.611898,-0.542000,0.348111,1.915392,1.744610,-0.069483,0.063074,0.000000,-0.268628,-0.040092,-0.000000
4.960000,1.828455,2.051933,-1.464765,0.396706,1.130491,-0.037759,-0.597965,-0.690129,0.281181,0.353437,-2.591071,-0.524245,0.333061,2.232109,1.797527,-0.072158,0.062671,0.000000,-0.266201,-0.040280,0.000000
4.970000,1.832392,2.063203,-1.465128,0.390744,1.123460,-0.034974,-0.594414,-0.715923,0.276029,0.356699,-2.567193,-0.506059,0.319523,2.542265,1.837695,-0.074806,0.062266,0.000000,-0.263478,-0.040452,0.000000
4.980000,1.836270,2.074401,-1.465465,0.384818,1.116173,-0.032238,-0.590831,-0.741463,0.271061,0.359833,-2.540248,-0.487532,0.307492,2.845598,1.865610,-0.077426,0.061860,0.000000,-0.260457,-0.040610,-0.000000
4.990000,1.840089,2.085525,-1.465773,0.378928,1.108632,-0.029552,-0.587218,-0.766718,0.266279,0.362854,-2.510305,-0.468786,0.296959,3.141849,1.881769,-0.080015,0.061452,0.000000,-0.257145,-0.040757,-0.000000
5.000000,1.843849,2.096573,-1.466056,0.373074,1.100840,-0.026912,-0.583574,-0.791659,0.261686,0.365777,-2.477436,-0.449934,0.287920,3.430757,1.886671,-0.082568,0.061042,0.000000,-0.253551,-0.040895,-0.000000
5.010000,1.847550,2.107541,-1.466312,0.367257,1.092800,-0.024317,-0.579902,-0.816257,0.257281,0.368613,-2.441654,-0.431076,0.280467,3.710512,1.880495,-0.085085,0.060631,0.000000,-0.249676,-0.041026,0.000000
5.020000,1.851194,2.118428,-1.466542,0.361476,1.084516,-0.021766,-0.576202,-0.840483,0.253064,0.371386,-2.403182,-0.412344,0.274480,3.982593,1.864094,-0.087561,0.060219,0.000000,-0.245542,-0.041153,0.000000
5.030000,1.854780,2.129231,-1.466747,0.355733,1.075991,-0.019255,-0.572475,-0.864311,0.249033,0.374107,-2.362028,-0.393826,0.269941,4.246928,1.838005,-0.089995,0.059805,0.000000,-0.241151,-0.041279,0.000000
5.040000,1.858309,2.139947,-1.466927,0.350027,1.067231,-0.016785,-0.568720,-0.887715,0.245186,0.376790,-2.318269,-0.375615,0.266829,4.503447,1.802763,-0.092383,0.059390,0.000000,-0.236508,-0.041404,-0.000000
5.050000,1.861781,2.150575,-1.467083,0.344358,1.058239,-0.014351,-0.564939,-0.910668,0.241520,0.379449,-2.271985,-0.357799,0.265126,4.752080,1.758905,-0.094724,0.058973,0.000000,-0.231622,-0.041531,0.000000
5.060000,1.865196,2.161111,-1.467215,0.338728,1.049019,-0.011954,-0.561132,-0.933146,0.238029,0.382093,-2.223211,-0.340461,0.264915,4.991670,1.706904,-0.097015,0.058555,0.000000,-0.226497,-0.041662,-0.000000
5.070000,1.868555,2.171554,-1.467322,0.333136,1.039577,-0.009590,-0.557297,-0.955125,0.234709,0.384747,-2.172130,-0.323684,0.266060,5.223365,1.647367,-0.099253,0.058136,0.000000,-0.221148,-0.041800,-0.000000
5.080000,1.871859,2.181902,-1.467406,0.327582,1.029918,-0.007259,-0.553437,-0.976581,0.231553,0.387419,-2.118770,-0.307537,0.268532,5.447226,1.580837,-0.101437,0.057715,0.000000,-0.215580,-0.041945,-0.000000
5.090000,1.875107,2.192152,-1.467468,0.322067,1.020048,-0.004958,-0.549549,-0.997493,0.228556,0.390122,-2.063211,-0.292088,0.272297,5.663315,1.507858,-0.103564,0.057293,0.000000,-0.209798,-0.042099,0.000000
5.100000,1.878300,2.202302,-1.467506,0.316591,1.009970,-0.002687,-0.545634,-1.017838,0.225709,0.392869,-2.005529,-0.277400,0.277323,5.871695,1.428975,-0.105632,0.056869,0.000000,-0.203810,-0.042264,-0.000000
5.110000,1.881439,2.212351,-1.467521,0.311154,0.999693,-0.000444,-0.541691,-1.037596,0.223005,0.395668,-1.945780,-0.263530,0.283696,6.071867,1.344812,-0.107640,0.056443,0.000000,-0.197620,-0.042441,0.000000
5.120000,1.884524,2.222295,-1.467515,0.305757,0.989221,0.001773,-0.537720,-1.056747,0.220435,0.398542,-1.884092,-0.250523,0.291253,6.264523,1.255823,-0.109584,0.056015,0.000000,-0.191240,-0.042633,0.000000
5.130000,1.887554,2.232134,-1.467486,0.300400,0.978560,0.003965,-0.533720,-1.075272,0.217991,0.401497,-1.820515,-0.238428,0.299947,6.449792,1.162539,-0.111464,0.055585,0.000000,-0.184675,-0.042840,0.000000
5.140000,1.890532,2.241866,-1.467435,0.295083,0.967717,0.006134,-0.529690,-1.093152,0.215664,0.404544,-1.755121,-0.227285,0.309732,6.627804,1.065494,-0.113277,0.055153,0.000000,-0.177929,-0.043063,-0.000000
5.150000,1.893456,2.251488,-1.467363,0.289806,0.956699,0.008279,-0.525629,-1.110369,0.213442,0.407695,-1.687982,-0.217129,0.320563,6.798692,0.965223,-0.115022,0.054718,0.000000,-0.171011,-0.043304,0.000000
5.160000,1.896328,2.260999,-1.467270,0.284571,0.945512,0.010403,-0.521536,-1.126906,0.211317,0.410953,-1.619169,-0.207997,0.332529,6.962552,0.862446,-0.116697,0.054281,0.000000,-0.163924,-0.043563,-0.000000
5.170000,1.899148,2.270398,-1.467155,0.279376,0.934163,0.012506,-0.517410,-1.142747,0.209279,0.414342,-1.548753,-0.199896,0.345431,7.119551,0.757487,-0.118300,0.053841,0.000000,-0.156677,-0.043843,0.000000
5.180000,1.901916,2.279682,-1.467020,0.274223,0.922660,0.014589,-0.513249,-1.157876,0.207316,0.417865,-1.476800,-0.192853,0.359207,7.269824,0.650856,-0.119830,0.053398,0.000000,-0.149275,-0.044143,-0.000000
5.190000,1.904632,2.288851,-1.466864,0.269111,0.911008,0.016652,-0.509052,-1.172278,0.205418,0.421529,-1.403378,-0.186882,0.373794,7.413506,0.543063,-0.121285,0.052951,0.000000,-0.141723,-0.044465,-0.000000
5.200000,1.907298,2.297902,-1.466687,0.264042,0.899216,0.018697,-0.504818,-1.185938,0.203575,0.425343,-1.328552,-0.181994,0.389130,7.550731,0.434619,-0.122664,0.052502,0.000000,-0.134028,-0.044809,0.000000
5.210000,1.909913,2.306834,-1.466490,0.259015,0.887292,0.020724,-0.500544,-1.198844,0.201775,0.429308,-1.252402,-0.178203,0.405303,7.682079,0.326347,-0.123965,0.052048,0.000000,-0.126196,-0.045175,-0.000000
5.220000,1.912479,2.315647,-1.466273,0.254031,0.875242,0.022733,-0.496231,-1.210982,0.200007,0.433445,-1.174951,-0.175479,0.422081,7.807185,0.218407,-0.125187,0.051591,0.000000,-0.118229,-0.045565,0.000000
5.230000,1.914994,2.324339,-1.466035,0.249090,0.863075,0.024724,-0.491875,-1.222339,0.198261,0.437752,-1.096279,-0.173832,0.439384,7.926128,0.111272,-0.126329,0.051130,0.000000,-0.110135,-0.045978,-0.000000
5.240000,1.917461,2.332908,-1.465778,0.244194,0.850798,0.026698,-0.487475,-1.232904,0.196527,0.442234,-1.016448,-0.173250,0.457129,8.038990,0.005413,-0.127389,0.050664,0.000000,-0.101920,-0.046416,-0.000000
5.250000,1.919878,2.341355,-1.465501,0.239341,0.838419,0.028655,-0.483030,-1.242665,0.194793,0.446895,-0.935519,-0.173718,0.475236,8.145850,-0.098697,-0.128367,0.050194,0.000000,-0.093588,-0.046877,-0.000000
5.260000,1.922247,2.349676,-1.465205,0.234533,0.825947,0.030594,-0.478537,-1.251611,0.193049,0.451733,-0.853584,-0.175236,0.493778,8.247623,-0.200095,-0.129261,0.049719,0.000000,-0.085150,-0.047363,0.000000
5.270000,1.924569,2.357873,-1.464890,0.229770,0.813390,0.032515,-0.473994,-1.259733,0.191285,0.456765,-0.770624,-0.177733,0.512501,8.343452,-0.298858,-0.130070,0.049239,0.000000,-0.076603,-0.047873,-0.000000
5.280000,1.926843,2.365944,-1.464555,0.225053,0.800756,0.034419,-0.469401,-1.267021,0.189491,0.461984,-0.686735,-0.181203,0.531304,8.433316,-0.394576,-0.130793,0.048753,0.000000,-0.067957,-0.048406,0.000000
5.290000,1.929070,2.373888,-1.464201,0.220383,0.788052,0.036305,-0.464754,-1.273465,0.187658,0.467391,-0.601977,-0.185613,0.550089,8.517192,-0.486834,-0.131428,0.048262,0.000000,-0.059218,-0.048964,0.000000
5.300000,1.931251,2.381705,-1.463829,0.215758,0.775289,0.038172,-0.460052,-1.279057,0.185776,0.472985,-0.516411,-0.190926,0.568754,8.595058,-0.575221,-0.131977,0.047765,0.000000,-0.050392,-0.049545,0.000000
5.310000,1.933386,2.389394,-1.463438,0.211182,0.762474,0.040021,-0.455294,-1.283791,0.183836,0.478759,-0.430139,-0.197132,0.587342,8.667978,-0.658599,-0.132436,0.047262,0.000000,-0.041489,-0.050148,-0.000000
5.320000,1.935475,2.396954,-1.463028,0.206653,0.749616,0.041849,-0.450477,-1.287658,0.181830,0.484724,-0.343121,-0.204115,0.605594,8.734711,-0.737369,-0.132806,0.046753,0.000000,-0.032506,-0.050773,0.000000
5.330000,1.937519,2.404386,-1.462601,0.202172,0.736724,0.043657,-0.445599,-1.290651,0.179751,0.490870,-0.255466,-0.211863,0.623391,8.795103,-0.811208,-0.133086,0.046238,0.000000,-0.023455,-0.051420,0.000000
5.340000,1.939518,2.411689,-1.462155,0.197741,0.723806,0.045444,-0.440659,-1.292765,0.177591,0.497190,-0.167240,-0.220322,0.640617,8.848998,-0.879793,-0.133275,0.045716,0.000000,-0.014342,-0.052087,-0.000000
5.350000,1.941474,2.418862,-1.461692,0.193359,0.710872,0.047208,-0.435654,-1.293995,0.175343,0.503680,-0.078508,-0.229440,0.657155,8.896242,-0.942800,-0.133373,0.045187,0.000000,-0.005175,-0.052773,-0.000000
5.360000,1.943386,2.425906,-1.461211,0.189028,0.697929,0.048950,-0.430585,-1.294335,0.173000,0.510326,0.010615,-0.239198,0.672994,8.937873,-0.998914,-0.133378,0.044651,0.000000,0.004035,-0.053477,-0.000000
5.370000,1.945254,2.432821,-1.460713,0.184748,0.684988,0.050668,-0.425447,-1.293781,0.170557,0.517132,0.100172,-0.249442,0.687896,8.972397,-1.048924,-0.133292,0.044107,0.000000,0.013289,-0.054198,-0.000000
5.380000,1.947081,2.439606,-1.460198,0.180519,0.672057,0.052361,-0.420241,-1.292330,0.168009,0.524081,0.190038,-0.260155,0.701732,8.999512,-1.092629,-0.133113,0.043557,0.000000,0.022575,-0.054934,0.000000
5.390000,1.948865,2.446262,-1.459666,0.176343,0.659144,0.054028,-0.414965,-1.289979,0.165352,0.531162,0.280137,-0.271273,0.714369,9.018918,-1.129826,-0.132840,0.042999,0.000000,0.031885,-0.055684,0.000000
5.400000,1.950608,2.452789,-1.459118,0.172220,0.646260,0.055668,-0.409618,-1.286727,0.162583,0.538364,0.370390,-0.282729,0.725679,9.030313,-1.160314,-0.132475,0.042433,0.000000,0.041209,-0.056447,-0.000000
5.410000,1.952310,2.459187,-1.458553,0.168151,0.633413,0.057279,-0.404198,-1.282572,0.159696,0.545669,0.460670,-0.294505,0.735583,9.034538,-1.182650,-0.132016,0.041860,0.000000,0.050535,-0.057219,-0.000000
5.420000,1.953971,2.465457,-1.457972,0.164137,0.620612,0.058861,-0.398704,-1.277513,0.156692,0.553068,0.551000,-0.306415,0.743892,9.030010,-1.198025,-0.131464,0.041279,0.000000,0.059861,-0.057999,-0.000000
5.430000,1.955593,2.471599,-1.457376,0.160177,0.607865,0.060413,-0.393136,-1.271552,0.153568,0.560541,0.641240,-0.318442,0.750468,9.016289,-1.206388,-0.130819,0.040690,0.000000,0.069174,-0.058786,-0.000000
5.440000,1.957175,2.477615,-1.456764,0.156274,0.595184,0.061932,-0.387493,-1.264689,0.150323,0.568071,0.731294,-0.330519,0.755173,8.992933,-1.207689,-0.130081,0.040093,0.000000,0.078463,-0.059577,-0.000000
5.450000,1.958718,2.483503,-1.456137,0.152428,0.582575,0.063419,-0.381775,-1.256927,0.146957,0.575638,0.821065,-0.342573,0.757871,8.959502,-1.201878,-0.129250,0.039488,0.000000,0.087717,-0.060369,0.000000
5.460000,1.960223,2.489266,-1.455496,0.148639,0.570048,0.064871,-0.375980,-1.248270,0.143471,0.583222,0.910412,-0.354588,0.758413,8.916485,-1.187502,-0.128327,0.038875,0.000000,0.096921,-0.061161,-0.000000
5.470000,1.961691,2.494905,-1.454840,0.144908,0.557612,0.066288,-0.370110,-1.238721,0.139866,0.590799,0.999316,-0.366362,0.756674,8.862398,-1.166085,-0.127312,0.038255,0.000000,0.106070,-0.061948,-0.000000
5.480000,1.963122,2.500419,-1.454170,0.141237,0.545276,0.067668,-0.364164,-1.228285,0.136145,0.598347,1.087621,-0.377887,0.752520,8.796684,-1.137749,-0.126205,0.037626,0.000000,0.115150,-0.062730,0.000000
5.490000,1.964516,2.505811,-1.453487,0.137625,0.533049,0.069010,-0.358143,-1.216971,0.132310,0.605841,1.175209,-0.389094,0.745815,8.718790,-1.102616,-0.125009,0.036990,0.000000,0.124146,-0.063503,0.000000
5.500000,1.965875,2.511080,-1.452790,0.134074,0.520940,0.070314,-0.352048,-1.204784,0.128364,0.613254,1.261955,-0.399917,0.736422,8.628161,-1.060808,-0.123723,0.036346,0.000000,0.133046,-0.064263,-0.000000
5.510000,1.967198,2.516230,-1.452080,0.130585,0.508957,0.071577,-0.345879,-1.191735,0.124312,0.620563,1.347703,-0.410345,0.724123,8.524859,-1.011025,-0.122348,0.035695,0.000000,0.141833,-0.065010,-0.000000
5.520000,1.968486,2.521260,-1.451359,0.127157,0.497108,0.072800,-0.339637,-1.177834,0.120159,0.627731,1.432378,-0.420180,0.708876,8.407637,-0.954983,-0.120887,0.035036,0.000000,0.150497,-0.065738,-0.000000
5.530000,1.969741,2.526172,-1.450625,0.123792,0.485403,0.073980,-0.333325,-1.163092,0.115910,0.634730,1.515808,-0.429424,0.690556,8.275864,-0.892978,-0.119339,0.034371,0.000000,0.159021,-0.066444,-0.000000
5.540000,1.970963,2.530969,-1.449879,0.120491,0.473849,0.075118,-0.326943,-1.147522,0.111573,0.641531,1.597844,-0.438020,0.669036,8.128910,-0.825305,-0.117707,0.033698,0.000000,0.167390,-0.067126,0.000000
5.550000,1.972151,2.535650,-1.449122,0.117254,0.462455,0.076211,-0.320495,-1.131140,0.107152,0.648100,1.678333,-0.445913,0.644193,7.966145,-0.752260,-0.115992,0.033019,0.000000,0.175587,-0.067780,-0.000000
5.560000,1.973308,2.540218,-1.448355,0.114081,0.451229,0.077260,-0.313982,-1.113961,0.102656,0.654409,1.757103,-0.453098,0.615762,7.787182,-0.672880,-0.114196,0.032334,0.000000,0.183596,-0.068403,-0.000000
5.570000,1.974433,2.544675,-1.447577,0.110974,0.440178,0.078264,-0.307408,-1.096004,0.098093,0.660410,1.834009,-0.459411,0.583774,7.591117,-0.588872,-0.112320,0.031642,0.000000,0.191399,-0.068990,-0.000000
5.580000,1.975527,2.549022,-1.446790,0.107933,0.429311,0.079222,-0.300775,-1.077288,0.093471,0.666072,1.908866,-0.464862,0.548118,7.377289,-0.500686,-0.110368,0.030945,0.000000,0.198980,-0.069539,-0.000000
5.590000,1.976592,2.553262,-1.445993,0.104959,0.418635,0.080133,-0.294087,-1.057834,0.088799,0.671359,1.981493,-0.469412,0.508688,7.145040,-0.408770,-0.108342,0.030243,0.000000,0.206318,-0.070045,-0.000000
5.600000,1.977627,2.557396,-1.445187,0.102052,0.408157,0.080998,-0.287349,-1.037666,0.084086,0.676233,2.051703,-0.473026,0.465375,6.893708,-0.313575,-0.106243,0.029536,0.000000,0.213397,-0.070504,0.000000
5.610000,1.978633,2.561426,-1.444373,0.099212,0.397884,0.081815,-0.280564,-1.016809,0.079341,0.680658,2.119304,-0.475710,0.417969,6.622577,-0.214635,-0.104075,0.028825,0.000000,0.220195,-0.070914,-0.000000
5.620000,1.979611,2.565354,-1.443551,0.096440,0.387823,0.082585,-0.273738,-0.995289,0.074575,0.684583,2.184089,-0.477352,0.366475,6.331049,-0.113426,-0.101840,0.028110,0.000000,0.226693,-0.071270,0.000000
5.630000,1.980562,2.569183,-1.442722,0.093737,0.377980,0.083306,-0.266874,-0.973137,0.069798,0.687973,2.245855,-0.477973,0.310796,6.018473,-0.010509,-0.099542,0.027392,0.000000,0.232871,-0.071567,-0.000000
5.640000,1.981486,2.572914,-1.441885,0.091103,0.368362,0.083981,-0.259980,-0.950383,0.065019,0.690785,2.304386,-0.477559,0.250837,5.684195,0.093556,-0.097184,0.026672,0.000000,0.238706,-0.071802,0.000000
5.650000,1.982384,2.576551,-1.441042,0.088538,0.358975,0.084607,-0.253061,-0.927061,0.060250,0.692975,2.359464,-0.476100,0.186501,5.327561,0.198206,-0.094769,0.025950,0.000000,0.244178,-0.071971,0.000000
5.660000,1.983257,2.580095,-1.440193,0.086042,0.349823,0.085186,-0.246123,-0.903206,0.055500,0.694489,2.410857,-0.473612,0.117964,4.948016,0.303313,-0.092301,0.025226,0.000000,0.249264,-0.072068,-0.000000
5.670000,1.984106,2.583548,-1.439339,0.083615,0.340912,0.085717,-0.239173,-0.878857,0.050781,0.695307,2.458341,-0.470055,0.044824,4.544797,0.407831,-0.089785,0.024503,0.000000,0.253942,-0.072092,-0.000000
5.680000,1.984930,2.586914,-1.438479,0.081258,0.332247,0.086201,-0.232219,-0.854053,0.046103,0.695370,2.501672,-0.465459,-0.033048,4.117239,0.511146,-0.087224,0.023779,0.000000,0.258188,-0.072036,-0.000000
5.690000,1.985731,2.590194,-1.437615,0.078971,0.323833,0.086639,-0.225269,-0.828838,0.041475,0.694630,2.540603,-0.459838,-0.115781,3.664678,0.612644,-0.084623,0.023057,0.000000,0.261978,-0.071898,0.000000
5.700000,1.986510,2.593391,-1.436746,0.076753,0.315672,0.087031,-0.218329,-0.803257,0.036909,0.693038,2.574880,-0.453214,-0.203506,3.186447,0.711710,-0.081986,0.022336,0.000000,0.265288,-0.071671,0.000000
5.710000,1.987266,2.596508,-1.435874,0.074604,0.307768,0.087378,-0.211411,-0.777357,0.032414,0.690511,2.604215,-0.445610,-0.295559,2.682612,0.807623,-0.079319,0.021619,0.000000,0.268089,-0.071349,-0.000000
