time,x,y,z,vx,vy,vz,ax,ay,az,jx,jy,jz,sx,sy,sz,roll,pitch,yaw,p,q,r
0.000000,-2.289644,-2.303903,-1.491608,0.001931,-0.016435,0.006904,0.158302,0.271959,0.002156,-3.854472,-6.947162,-0.022028,87.267206,205.092895,-8.992762,0.027718,-0.016139,0.000000,-0.707577,0.392782,0.000000
0.010000,-2.289617,-2.304055,-1.491539,0.003336,-0.014030,0.006923,0.123965,0.212374,0.001498,-3.028164,-5.006127,-0.108290,78.106232,183.377217,-8.259318,0.021647,-0.012638,0.000000,-0.510261,0.308746,-0.000000
0.020000,-2.289578,-2.304186,-1.491469,0.004437,-0.012127,0.006931,0.097445,0.171139,0.000015,-2.290152,-3.274461,-0.187209,69.603635,163.208595,-7.524354,0.017443,-0.009933,0.000000,-0.333963,0.233582,-0.000000
0.030000,-2.289529,-2.304299,-1.491400,0.005308,-0.010553,0.006921,0.077890,0.146237,-0.002221,-1.633985,-1.737006,-0.258779,61.732983,144.524594,-6.789703,0.014902,-0.007938,0.000000,-0.177353,0.166706,0.000000
0.040000,-2.289473,-2.304397,-1.491331,0.006015,-0.009154,0.006885,0.064513,0.135800,-0.005136,-1.053474,-0.379229,-0.323010,54.467843,127.262781,-6.057194,0.013835,-0.006573,0.000000,-0.039074,0.107533,-0.000000
0.050000,-2.289409,-2.304482,-1.491263,0.006616,-0.007794,0.006816,0.056588,0.138100,-0.008657,-0.542698,0.812782,-0.379936,47.781783,111.360721,-5.328657,0.014064,-0.005763,0.000000,0.082222,0.055488,-0.000000
0.060000,-2.289340,-2.304553,-1.491195,0.007163,-0.006355,0.006710,0.053445,0.151547,-0.012711,-0.095997,1.852310,-0.429603,41.648370,96.755980,-4.605922,0.015427,-0.005441,0.000000,0.187853,0.010009,0.000000
0.070000,-2.289266,-2.304609,-1.491129,0.007699,-0.004731,0.006560,0.054472,0.174680,-0.017225,0.292024,2.752018,-0.472080,36.041171,83.386124,-3.890821,0.017773,-0.005543,0.000000,0.279091,-0.029444,-0.000000
0.080000,-2.289186,-2.304647,-1.491064,0.008264,-0.002833,0.006364,0.059107,0.206162,-0.022129,0.626493,3.523941,-0.507451,30.933754,71.188718,-3.185182,0.020965,-0.006012,0.000000,0.357157,-0.063392,-0.000000
0.090000,-2.289101,-2.304664,-1.491001,0.008892,-0.000584,0.006117,0.066840,0.244771,-0.027351,0.912277,4.179492,-0.535821,26.299687,60.101328,-2.490836,0.024876,-0.006794,0.000000,0.423217,-0.092333,0.000000
0.100000,-2.289008,-2.304657,-1.490942,0.009610,0.002082,0.005816,0.077206,0.289400,-0.032822,1.153976,4.729459,-0.557311,22.112537,50.061519,-1.809614,0.029393,-0.007844,0.000000,0.478378,-0.116739,0.000000
0.110000,-2.288908,-2.304621,-1.490885,0.010443,0.005221,0.005460,0.089787,0.339043,-0.038475,1.355929,5.184006,-0.572063,18.345871,41.006858,-1.143345,0.034411,-0.009117,0.000000,0.523691,-0.137057,-0.000000
0.120000,-2.288799,-2.304551,-1.490833,0.011412,0.008877,0.005046,0.104206,0.392794,-0.044241,1.522207,5.552672,-0.580234,14.973258,32.874910,-0.493860,0.039837,-0.010574,0.000000,0.560147,-0.153710,0.000000
0.130000,-2.288679,-2.304441,-1.490785,0.012532,0.013088,0.004575,0.120125,0.449840,-0.050058,1.656619,5.844372,-0.582002,11.968264,25.603241,0.137011,0.045587,-0.012182,0.000000,0.588677,-0.167095,0.000000
0.140000,-2.288548,-2.304287,-1.490741,0.013818,0.017882,0.004045,0.137244,0.509452,-0.055861,1.762710,6.067396,-0.577562,9.304457,19.129416,0.747438,0.051587,-0.013910,0.000000,0.610153,-0.177582,-0.000000
0.150000,-2.288402,-2.304082,-1.490704,0.015280,0.023283,0.003458,0.155296,0.570984,-0.061589,1.843758,6.229412,-0.567128,6.955405,13.391002,1.335591,0.057770,-0.015730,0.000000,0.625383,-0.185514,0.000000
0.160000,-2.288241,-2.303819,-1.490672,0.016926,0.029306,0.002814,0.174045,0.633861,-0.067184,1.902779,6.337460,-0.550931,4.894675,8.325563,1.899639,0.064076,-0.017619,0.000000,0.635116,-0.191208,0.000000
0.170000,-2.288063,-2.303494,-1.490648,0.018763,0.035963,0.002115,0.193287,0.697575,-0.072589,1.942524,6.397958,-0.529221,3.095834,3.870666,2.437753,0.070456,-0.019556,0.000000,0.640036,-0.194953,0.000000
0.180000,-2.287866,-2.303098,-1.490630,0.020793,0.043259,0.001363,0.212840,0.761681,-0.077751,1.965480,6.416700,-0.502268,1.532450,-0.036124,2.948101,0.076863,-0.021522,0.000000,0.640764,-0.197011,-0.000000
0.190000,-2.287647,-2.302626,-1.490621,0.023020,0.051197,0.000561,0.232548,0.825787,-0.082618,1.973870,6.398855,-0.470358,0.178091,-3.457241,3.428855,0.083259,-0.023503,0.000000,0.637854,-0.197615,-0.000000
0.200000,-2.287405,-2.302072,-1.490619,0.025444,0.059774,-0.000288,0.252275,0.889551,-0.087143,1.969651,6.348966,-0.433796,-0.993676,-6.455119,3.878182,0.089610,-0.025484,0.000000,0.631795,-0.196973,0.000000
0.210000,-2.287137,-2.301429,-1.490627,0.028064,0.068982,-0.001181,0.271950,0.952787,-0.091281,1.958688,6.281452,-0.392976,-2.114636,-9.357322,4.296056,0.095897,-0.027459,0.000000,0.624057,-0.195680,0.000000
0.220000,-2.286843,-2.300690,-1.490643,0.030881,0.078823,-0.002113,0.291414,1.015089,-0.094989,1.932537,6.174759,-0.348073,-3.092970,-11.928690,4.678623,0.102082,-0.029412,0.000000,0.612517,-0.192896,-0.000000
0.230000,-2.286519,-2.299850,-1.490669,0.033891,0.089280,-0.003079,0.310570,1.076201,-0.098230,1.897259,6.043881,-0.299529,-3.942208,-14.199193,5.023832,0.108140,-0.031334,0.000000,0.598701,-0.189237,0.000000
0.240000,-2.286164,-2.298903,-1.490705,0.037091,0.100342,-0.004075,0.329333,1.135896,-0.100969,1.854078,5.891678,-0.247728,-4.675882,-16.198800,5.329635,0.114050,-0.033217,0.000000,0.582913,-0.184829,-0.000000
0.250000,-2.285776,-2.297841,-1.490751,0.040476,0.111993,-0.005097,0.347629,1.193972,-0.103175,1.804082,5.720708,-0.193074,-5.307526,-17.957480,5.593979,0.119793,-0.035053,0.000000,0.565426,-0.179785,-0.000000
0.260000,-2.285354,-2.296661,-1.490807,0.044041,0.124214,-0.006137,0.365418,1.250308,-0.104818,1.750335,5.538092,-0.135634,-5.904041,-19.627969,5.805752,0.125359,-0.036839,0.000000,0.546962,-0.174415,-0.000000
0.270000,-2.284895,-2.295355,-1.490873,0.047782,0.136991,-0.007191,0.382617,1.304682,-0.105881,1.688655,5.334283,-0.076703,-6.419054,-21.102437,5.973075,0.130727,-0.038567,0.000000,0.526573,-0.168298,0.000000
0.280000,-2.284398,-2.293919,-1.490951,0.051692,0.150301,-0.008253,0.399175,1.356947,-0.106347,1.622203,5.116647,-0.016324,-6.859562,-22.395822,6.095007,0.135886,-0.040233,0.000000,0.504999,-0.161753,-0.000000
0.290000,-2.283861,-2.292348,-1.491038,0.055763,0.164122,-0.009316,0.415048,1.406974,-0.106204,1.551689,4.886920,0.045043,-7.232562,-23.523061,6.170606,0.140824,-0.041831,0.000000,0.482412,-0.154848,-0.000000
0.300000,-2.283282,-2.290635,-1.491137,0.059990,0.178432,-0.010375,0.430198,1.454651,-0.105445,1.477753,4.646690,0.106931,-7.545050,-24.499089,6.198932,0.145531,-0.043359,0.000000,0.458963,-0.147645,0.000000
0.310000,-2.282660,-2.288777,-1.491246,0.064364,0.193206,-0.011423,0.444605,1.499903,-0.104059,1.402039,4.399667,0.169452,-7.831123,-25.396298,6.164112,0.150003,-0.044816,0.000000,0.435019,-0.140307,0.000000
0.320000,-2.281994,-2.286770,-1.491365,0.068879,0.208421,-0.012454,0.458230,1.542616,-0.102058,1.322507,4.141756,0.230722,-8.067361,-26.165137,6.081964,0.154230,-0.046197,0.000000,0.410146,-0.132620,-0.000000
0.330000,-2.281282,-2.284608,-1.491495,0.073526,0.224050,-0.013462,0.471048,1.582714,-0.099448,1.240846,3.876766,0.290937,-8.257441,-26.813505,5.953376,0.158204,-0.047499,0.000000,0.384712,-0.124751,0.000000
0.340000,-2.280523,-2.282287,-1.491634,0.078297,0.240066,-0.014441,0.483041,1.620132,-0.096244,1.157499,3.605861,0.349637,-8.405044,-27.349307,5.779235,0.161922,-0.048723,0.000000,0.358816,-0.116738,0.000000
0.350000,-2.279716,-2.279805,-1.491784,0.083184,0.256444,-0.015385,0.494194,1.654815,-0.092462,1.072874,3.330129,0.406372,-8.513847,-27.780442,5.560429,0.165379,-0.049865,0.000000,0.332543,-0.108615,0.000000
0.360000,-2.278859,-2.277157,-1.491942,0.088178,0.273153,-0.016289,0.504501,1.686733,-0.088118,0.987880,3.051644,0.461300,-8.601182,-28.141806,5.282680,0.168573,-0.050925,0.000000,0.306088,-0.100471,0.000000
0.370000,-2.277952,-2.274341,-1.492109,0.093271,0.290168,-0.017146,0.513949,1.715838,-0.083246,0.901570,2.768805,0.512566,-8.655404,-28.411002,4.963898,0.171500,-0.051903,0.000000,0.279246,-0.092196,-0.000000
0.380000,-2.276994,-2.271353,-1.492285,0.098454,0.307460,-0.017952,0.522532,1.742102,-0.077878,0.814876,2.483716,0.560451,-8.678518,-28.592627,4.606824,0.174158,-0.052797,0.000000,0.252211,-0.083881,-0.000000
0.390000,-2.275983,-2.268191,-1.492468,0.103719,0.325001,-0.018702,0.530246,1.765507,-0.072050,0.728097,2.197229,0.604584,-8.672533,-28.691277,4.214204,0.176544,-0.053606,0.000000,0.225044,-0.075548,-0.000000
0.400000,-2.274919,-2.264852,-1.492659,0.109056,0.342761,-0.019392,0.537094,1.786044,-0.065800,0.641515,1.910151,0.644625,-8.639456,-28.711549,3.788781,0.178658,-0.054331,0.000000,0.197798,-0.067219,0.000000
0.410000,-2.273801,-2.261335,-1.492856,0.114458,0.360712,-0.020017,0.543081,1.803716,-0.059167,0.555649,1.623717,0.680691,-8.587794,-28.669991,3.322398,0.180501,-0.054973,0.000000,0.170580,-0.058942,-0.000000
0.420000,-2.272630,-2.257637,-1.493059,0.119915,0.378826,-0.020574,0.548209,1.818521,-0.052202,0.470129,1.337521,0.711473,-8.512257,-28.557783,2.830034,0.182070,-0.055530,0.000000,0.143309,-0.050669,-0.000000
0.430000,-2.271403,-2.253758,-1.493267,0.125419,0.397073,-0.021060,0.552486,1.830471,-0.044954,0.385479,1.052787,0.737219,-8.414056,-28.378059,2.315770,0.183367,-0.056003,0.000000,0.116092,-0.042450,0.000000
0.440000,-2.270121,-2.249696,-1.493480,0.130962,0.415426,-0.021472,0.555922,1.839584,-0.037475,0.301920,0.770174,0.757729,-8.294402,-28.133951,1.783684,0.184392,-0.056393,0.000000,0.088975,-0.034301,-0.000000
0.450000,-2.268784,-2.245449,-1.493696,0.136535,0.433855,-0.021809,0.558529,1.845884,-0.029818,0.219659,0.490312,0.772847,-8.154507,-27.828593,1.237855,0.185147,-0.056701,0.000000,0.062001,-0.026239,0.000000
0.460000,-2.267390,-2.241018,-1.493916,0.142130,0.452334,-0.022068,0.560322,1.849403,-0.022035,0.138994,0.213957,0.782612,-7.998137,-27.469188,0.678372,0.185633,-0.056928,0.000000,0.035232,-0.018293,-0.000000
0.470000,-2.265941,-2.236403,-1.494137,0.147739,0.470834,-0.022249,0.561315,1.850176,-0.014184,0.059871,-0.058705,0.786575,-7.823635,-27.054299,0.113793,0.185852,-0.057074,0.000000,0.008668,-0.010451,0.000000
0.480000,-2.264436,-2.231602,-1.494360,0.153354,0.489329,-0.022352,0.561525,1.848244,-0.006322,-0.017421,-0.326953,0.784886,-7.631897,-26.586560,-0.451316,0.185807,-0.057141,0.000000,-0.017630,-0.002742,0.000000
0.490000,-2.262874,-2.226616,-1.494584,0.158967,0.507790,-0.022376,0.560973,1.843653,0.001495,-0.092713,-0.590269,0.777563,-7.423822,-26.068607,-1.012386,0.185501,-0.057130,0.000000,-0.043616,0.004818,-0.000000
0.500000,-2.261256,-2.221446,-1.494808,0.164570,0.526193,-0.022322,0.559678,1.836457,0.009210,-0.165846,-0.848166,0.764667,-7.200308,-25.503072,-1.564851,0.184936,-0.057043,0.000000,-0.069248,0.012214,-0.000000
0.510000,-2.259583,-2.216092,-1.495030,0.170158,0.544511,-0.022192,0.557664,1.826710,0.016768,-0.236651,-1.100171,0.746165,-6.962735,-24.892835,-2.100495,0.184117,-0.056882,0.000000,-0.094483,0.019428,-0.000000
0.520000,-2.257853,-2.210556,-1.495251,0.175721,0.562719,-0.021988,0.554953,1.814474,0.024116,-0.305034,-1.345871,0.722552,-6.711460,-24.240255,-2.618846,0.183048,-0.056649,0.000000,-0.119273,0.026448,-0.000000
0.530000,-2.256068,-2.204839,-1.495470,0.181255,0.580792,-0.021711,0.551572,1.799815,0.031202,-0.370838,-1.584844,0.693859,-6.447321,-23.547937,-3.115782,0.181733,-0.056345,0.000000,-0.143575,0.033256,-0.000000
0.540000,-2.254228,-2.198941,-1.495685,0.186751,0.598707,-0.021365,0.547546,1.782801,0.037977,-0.433940,-1.816706,0.660322,-6.171157,-22.818485,-3.587183,0.180178,-0.055973,0.000000,-0.167343,0.039837,-0.000000
0.550000,-2.252333,-2.192865,-1.495897,0.192203,0.616441,-0.020953,0.542902,1.763506,0.044393,-0.494224,-2.041098,0.622215,-5.883807,-22.054505,-4.028929,0.178388,-0.055536,0.000000,-0.190534,0.046177,0.000000
0.560000,-2.250384,-2.186613,-1.496104,0.197607,0.633970,-0.020478,0.537671,1.742005,0.050403,-0.551593,-2.257716,0.579447,-5.585815,-21.257919,-4.426588,0.176369,-0.055036,0.000000,-0.213111,0.052262,-0.000000
0.570000,-2.248381,-2.180186,-1.496306,0.202955,0.651274,-0.019946,0.531881,1.718378,0.055970,-0.605922,-2.466190,0.533345,-5.278350,-20.432096,-4.787613,0.174128,-0.054475,0.000000,-0.235007,0.058072,0.000000
0.580000,-2.246325,-2.173588,-1.496503,0.208243,0.668331,-0.019360,0.525563,1.692709,0.061058,-0.657132,-2.666270,0.483827,-4.962288,-19.579724,-5.109144,0.171672,-0.053858,0.000000,-0.256188,0.063594,0.000000
0.590000,-2.244217,-2.166821,-1.496693,0.213465,0.685121,-0.018726,0.518749,1.665082,0.065636,-0.705142,-2.857705,0.431303,-4.638502,-18.703490,-5.388324,0.169007,-0.053186,0.000000,-0.276612,0.068815,0.000000
0.600000,-2.242056,-2.159887,-1.496877,0.218616,0.701626,-0.018049,0.511471,1.635584,0.069676,-0.749879,-3.040269,0.376211,-4.307867,-17.806082,-5.622293,0.166142,-0.052462,0.000000,-0.296238,0.073723,0.000000
0.610000,-2.239845,-2.152789,-1.497054,0.223693,0.717827,-0.017335,0.503762,1.604307,0.073147,-0.791284,-3.213744,0.318434,-3.971120,-16.890707,-5.793465,0.163085,-0.051692,0.000000,-0.315032,0.078309,0.000000
0.620000,-2.237583,-2.145531,-1.497224,0.228690,0.733707,-0.016588,0.495656,1.571340,0.076040,-0.829290,-3.378007,0.259848,-3.629292,-15.959471,-5.915515,0.159844,-0.050876,0.000000,-0.332940,0.082553,0.000000
0.630000,-2.235271,-2.138116,-1.497386,0.233605,0.749249,-0.015816,0.487188,1.536778,0.078341,-0.863856,-3.532889,0.200291,-3.283272,-15.014996,-5.987386,0.156429,-0.050020,0.000000,-0.349935,0.086449,-0.000000
0.640000,-2.232911,-2.130547,-1.497540,0.238433,0.764437,-0.015023,0.478391,1.500714,0.080044,-0.894945,-3.678272,0.140271,-2.933954,-14.059907,-6.008024,0.152849,-0.049127,0.000000,-0.365984,0.089988,-0.000000
0.650000,-2.230503,-2.122829,-1.497686,0.243171,0.779258,-0.014217,0.469301,1.463245,0.081147,-0.922527,-3.814061,0.080305,-2.582229,-13.096829,-5.976376,0.149113,-0.048201,0.000000,-0.381058,0.093161,-0.000000
0.660000,-2.228048,-2.114964,-1.497824,0.247818,0.793698,-0.013402,0.459952,1.424466,0.081645,-0.946562,-3.940078,0.020279,-2.229549,-12.131231,-5.875159,0.145231,-0.047244,0.000000,-0.395129,0.095963,-0.000000
0.670000,-2.225547,-2.106956,-1.497954,0.252370,0.807743,-0.012586,0.450381,1.384475,0.081556,-0.967091,-4.056548,-0.037748,-1.876176,-11.162543,-5.721533,0.141214,-0.046262,0.000000,-0.408180,0.098386,0.000000
0.680000,-2.223001,-2.098810,-1.498076,0.256825,0.821384,-0.011773,0.440622,1.343368,0.080896,-0.984086,-4.163326,-0.093980,-1.522934,-10.193041,-5.516428,0.137071,-0.045258,0.000000,-0.420191,0.100427,0.000000
0.690000,-2.220411,-2.090530,-1.498190,0.261182,0.834607,-0.010970,0.430711,1.301241,0.079684,-0.997553,-4.260414,-0.147908,-1.170645,-9.224998,-5.260778,0.132813,-0.044236,0.000000,-0.431147,0.102084,-0.000000
0.700000,-2.217777,-2.082119,-1.498295,0.265439,0.847405,-0.010181,0.420683,1.258192,0.077947,-1.007505,-4.347838,-0.199030,-0.820133,-8.260692,-4.955513,0.128452,-0.043200,0.000000,-0.441039,0.103355,-0.000000
0.710000,-2.215102,-2.073583,-1.498393,0.269595,0.859768,-0.009412,0.410573,1.214319,0.075708,-1.013910,-4.425445,-0.247440,-0.473582,-7.307504,-4.586801,0.123996,-0.042153,0.000000,-0.449848,0.104237,0.000000
0.720000,-2.212386,-2.064925,-1.498484,0.273650,0.871689,-0.008668,0.400416,1.169715,0.073011,-1.016927,-4.493786,-0.291272,-0.130286,-6.361977,-4.172147,0.119458,-0.041100,0.000000,-0.457604,0.104740,-0.000000
0.730000,-2.209630,-2.056151,-1.498567,0.277603,0.883161,-0.007953,0.390246,1.124474,0.069898,-1.016529,-4.552716,-0.330739,0.209098,-5.425763,-3.714291,0.114848,-0.040044,0.000000,-0.464296,0.104861,-0.000000
0.740000,-2.206834,-2.047264,-1.498643,0.281455,0.894177,-0.007271,0.380097,1.078691,0.066413,-1.012760,-4.602338,-0.365423,0.543914,-4.500510,-3.215972,0.110176,-0.038990,0.000000,-0.469930,0.104606,0.000000
0.750000,-2.204001,-2.038269,-1.498712,0.285205,0.904733,-0.006626,0.370002,1.032458,0.062606,-1.005668,-4.642768,-0.394933,0.873506,-3.587870,-2.679931,0.105453,-0.037941,0.000000,-0.474518,0.103980,-0.000000
0.760000,-2.201130,-2.029171,-1.498776,0.288855,0.914825,-0.006020,0.359995,0.985869,0.058528,-0.995236,-4.673896,-0.419336,1.195357,-2.695715,-2.098016,0.100689,-0.036900,0.000000,-0.478054,0.102982,-0.000000
0.770000,-2.198224,-2.019974,-1.498833,0.292406,0.924449,-0.005456,0.350108,0.939010,0.054240,-0.981699,-4.696455,-0.437277,1.510898,-1.818710,-1.485192,0.095895,-0.035872,0.000000,-0.480606,0.101636,0.000000
0.780000,-2.195283,-2.010683,-1.498885,0.295858,0.933604,-0.004936,0.340372,0.891969,0.049803,-0.965040,-4.710324,-0.448951,1.819703,-0.957745,-0.845532,0.091080,-0.034859,0.000000,-0.482172,0.099941,0.000000
0.790000,-2.192307,-2.001303,-1.498932,0.299214,0.942288,-0.004460,0.330817,0.844832,0.045282,-0.945329,-4.715667,-0.454111,2.121343,-0.113707,-0.183110,0.086255,-0.033866,0.000000,-0.482776,0.097908,0.000000
0.800000,-2.189299,-1.991839,-1.498974,0.302475,0.950501,-0.004030,0.321475,0.797683,0.040743,-0.922639,-4.712657,-0.452551,2.415390,0.712514,0.498002,0.081428,-0.032895,0.000000,-0.482446,0.095546,-0.000000
0.810000,-2.186258,-1.982295,-1.499012,0.305644,0.958242,-0.003645,0.312375,0.750608,0.036252,-0.896976,-4.701257,-0.444321,2.699603,1.514424,1.199243,0.076609,-0.031950,0.000000,-0.481189,0.092859,0.000000
0.820000,-2.183186,-1.972676,-1.499047,0.308723,0.965513,-0.003305,0.303545,0.703684,0.031880,-0.868593,-4.682182,-0.428779,2.975589,2.297429,1.910351,0.071807,-0.031033,0.000000,-0.479086,0.089873,0.000000
0.830000,-2.180084,-1.962986,-1.499079,0.311716,0.972317,-0.003007,0.295012,0.656990,0.027700,-0.837492,-4.655372,-0.406097,3.243140,3.061324,2.626578,0.067030,-0.030149,0.000000,-0.476147,0.086591,-0.000000
0.840000,-2.176952,-1.953231,-1.499107,0.314625,0.978654,-0.002750,0.286804,0.610602,0.023782,-0.803759,-4.621020,-0.376246,3.502050,3.805909,3.343174,0.062287,-0.029299,0.000000,-0.472402,0.083026,-0.000000
0.850000,-2.173792,-1.943415,-1.499134,0.317453,0.984530,-0.002530,0.278945,0.564594,0.020199,-0.767481,-4.579319,-0.339248,3.752112,4.530981,4.055391,0.057585,-0.028486,0.000000,-0.467887,0.079187,-0.000000
0.860000,-2.170603,-1.933542,-1.499158,0.320205,0.989948,-0.002344,0.271463,0.519041,0.017021,-0.728700,-4.530337,-0.295153,3.991931,5.233084,4.758087,0.052931,-0.027713,0.000000,-0.462621,0.075083,-0.000000
0.870000,-2.167388,-1.923617,-1.499181,0.322884,0.994912,-0.002188,0.264379,0.474011,0.014319,-0.687620,-4.474577,-0.244115,4.222636,5.915669,5.446954,0.048334,-0.026983,0.000000,-0.456669,0.070734,-0.000000
0.880000,-2.164146,-1.913645,-1.499202,0.325494,0.999430,-0.002056,0.257718,0.429572,0.012162,-0.644278,-4.412088,-0.186276,4.444164,6.578932,6.117293,0.043800,-0.026297,0.000000,-0.450049,0.066148,0.000000
0.890000,-2.160878,-1.903630,-1.499222,0.328039,1.003506,-0.001943,0.251501,0.385791,0.010616,-0.598767,-4.343062,-0.121846,4.656456,7.223071,6.764401,0.039336,-0.025659,0.000000,-0.442793,0.061334,0.000000
0.900000,-2.157585,-1.893576,-1.499241,0.330525,1.007148,-0.001842,0.245750,0.342732,0.009746,-0.551180,-4.267689,-0.051081,4.859449,7.848282,7.383580,0.034946,-0.025071,0.000000,-0.434932,0.056302,0.000000
0.910000,-2.154268,-1.883488,-1.499259,0.332956,1.010363,-0.001746,0.240484,0.300457,0.009617,-0.501601,-4.186161,0.025954,5.052878,8.454826,7.964137,0.030639,-0.024533,0.000000,-0.426494,0.051062,-0.000000
0.920000,-2.150926,-1.873371,-1.499276,0.335337,1.013160,-0.001647,0.235724,0.259028,0.010284,-0.450144,-4.098658,0.108347,5.236912,9.042828,8.508096,0.026418,-0.024050,0.000000,-0.417509,0.045626,0.000000
0.930000,-2.147561,-1.863227,-1.499292,0.337672,1.015547,-0.001537,0.231487,0.218504,0.011801,-0.396894,-4.005366,0.195980,5.411516,9.612475,9.011490,0.022290,-0.023621,0.000000,-0.408002,0.040002,0.000000
0.940000,-2.144173,-1.853061,-1.499307,0.339968,1.017533,-0.001408,0.227792,0.178940,0.014219,-0.341945,-3.906469,0.288428,5.576655,10.163958,9.470352,0.018260,-0.023250,0.000000,-0.397998,0.034199,0.000000
0.950000,-2.140762,-1.842877,-1.499320,0.342230,1.019129,-0.001250,0.224654,0.140392,0.017584,-0.285393,-3.802147,0.385226,5.732292,10.697464,9.880716,0.014332,-0.022938,0.000000,-0.387520,0.028224,0.000000
0.960000,-2.137328,-1.832680,-1.499331,0.344463,1.020345,-0.001053,0.222088,0.102913,0.021941,-0.227362,-3.692708,0.486292,5.879167,11.216448,10.227905,0.010511,-0.022686,0.000000,-0.376600,0.022089,-0.000000
0.970000,-2.133873,-1.822472,-1.499341,0.346674,1.021191,-0.000807,0.220111,0.066555,0.027321,-0.167876,-3.578023,0.590078,6.016374,11.717433,10.519973,0.006802,-0.022496,0.000000,-0.365229,0.015795,0.000000
0.980000,-2.130395,-1.812257,-1.499347,0.348867,1.021680,-0.000503,0.218735,0.031369,0.033752,-0.107067,-3.458420,0.696499,6.143783,12.200207,10.754264,0.003208,-0.022370,0.000000,-0.353436,0.009353,0.000000
0.990000,-2.126895,-1.802039,-1.499351,0.351051,1.021823,-0.000129,0.217974,-0.002597,0.041257,-0.045034,-3.334081,0.804962,6.261263,12.664561,10.928122,-0.000266,-0.022310,0.000000,-0.341238,0.002770,-0.000000
1.000000,-2.123374,-1.791822,-1.499350,0.353229,1.021632,0.000326,0.217838,-0.035298,0.049856,0.018124,-3.205191,0.914851,6.368684,13.110282,11.038892,-0.003616,-0.022315,0.000000,-0.328648,-0.003947,-0.000000
1.010000,-2.119831,-1.781608,-1.499344,0.355409,1.021121,0.000872,0.218339,-0.066689,0.059563,0.082252,-3.072146,1.026084,6.467284,13.542421,11.069703,-0.006838,-0.022389,0.000000,-0.315702,-0.010787,-0.000000
1.020000,-2.116266,-1.771400,-1.499332,0.357598,1.020303,0.001521,0.219486,-0.096726,0.070377,0.147374,-2.934643,1.136657,6.555396,13.954860,11.033855,-0.009928,-0.022532,0.000000,-0.302358,-0.017751,-0.000000
1.030000,-2.112679,-1.761203,-1.499313,0.359801,1.019191,0.002283,0.221289,-0.125368,0.082294,0.213324,-2.793117,1.246535,6.632721,14.346745,10.930433,-0.012884,-0.022744,0.000000,-0.288652,-0.024830,0.000000
1.040000,-2.109070,-1.751017,-1.499286,0.362026,1.017800,0.003170,0.223755,-0.152576,0.095303,0.279991,-2.647779,1.355038,6.698961,14.717222,10.758522,-0.015700,-0.023029,0.000000,-0.274593,-0.032013,-0.000000
1.050000,-2.105438,-1.740847,-1.499249,0.364279,1.016145,0.004193,0.226891,-0.178312,0.109388,0.347265,-2.498847,1.461475,6.753818,15.065434,10.517207,-0.018374,-0.023385,0.000000,-0.260190,-0.039294,-0.000000
1.060000,-2.101784,-1.730695,-1.499201,0.366566,1.014239,0.005361,0.230702,-0.202544,0.124530,0.414979,-2.346749,1.565788,6.798245,15.395600,10.189389,-0.020903,-0.023815,0.000000,-0.245476,-0.046660,-0.000000
1.070000,-2.098107,-1.720563,-1.499141,0.368895,1.012099,0.006686,0.235192,-0.225236,0.140692,0.483133,-2.191244,1.665754,6.830539,15.701170,9.792319,-0.023283,-0.024319,0.000000,-0.230408,-0.054109,0.000000
1.080000,-2.094406,-1.710454,-1.499067,0.371272,1.009740,0.008178,0.240365,-0.246359,0.157831,0.551548,-2.032812,1.761407,6.850249,15.980668,9.327062,-0.025510,-0.024898,0.000000,-0.215019,-0.061629,0.000000
1.090000,-2.090681,-1.700369,-1.498977,0.373705,1.007177,0.009846,0.246223,-0.265884,0.175903,0.620095,-1.871722,1.852072,6.856921,16.232616,8.794687,-0.027582,-0.025552,0.000000,-0.199321,-0.069206,0.000000
1.100000,-2.086932,-1.690311,-1.498870,0.376199,1.004427,0.011699,0.252767,-0.283786,0.194854,0.688642,-1.708257,1.937081,6.850105,16.455539,8.196259,-0.029496,-0.026282,0.000000,-0.183327,-0.076830,0.000000
1.110000,-2.083157,-1.680281,-1.498743,0.378762,1.001507,0.013746,0.259996,-0.300043,0.214631,0.757037,-1.542812,2.016425,6.829692,16.650448,7.516567,-0.031248,-0.027089,0.000000,-0.167062,-0.084487,0.000000
1.120000,-2.079356,-1.670282,-1.498594,0.381401,0.998432,0.015994,0.267907,-0.314636,0.235159,0.825172,-1.375466,2.087932,6.794844,16.813073,6.774950,-0.032836,-0.027973,0.000000,-0.150514,-0.092161,0.000000
1.130000,-2.075529,-1.660313,-1.498422,0.384123,0.995220,0.018451,0.276498,-0.327548,0.256364,0.892884,-1.206664,2.151727,6.745070,16.941633,5.974466,-0.034257,-0.028934,0.000000,-0.133714,-0.099836,-0.000000
1.140000,-2.071673,-1.650378,-1.498224,0.386933,0.991887,0.021123,0.285763,-0.338765,0.278165,0.960022,-1.036753,2.207236,6.679874,17.034347,5.118177,-0.035510,-0.029971,0.000000,-0.116683,-0.107495,-0.000000
1.150000,-2.067790,-1.640476,-1.497999,0.389840,0.988450,0.024016,0.295696,-0.348280,0.300479,1.026429,-0.866102,2.253915,6.598765,17.089433,4.209142,-0.036590,-0.031085,0.000000,-0.099445,-0.115118,0.000000
1.160000,-2.063876,-1.630609,-1.497743,0.392849,0.984927,0.027134,0.306289,-0.356085,0.323219,1.091989,-0.695016,2.291813,6.500064,17.103085,3.236288,-0.037498,-0.032275,0.000000,-0.082022,-0.122692,0.000000
1.170000,-2.059932,-1.620777,-1.497455,0.395968,0.981334,0.030481,0.317532,-0.362181,0.346282,1.156427,-0.524087,2.319122,6.384607,17.075795,2.218539,-0.038230,-0.033540,0.000000,-0.064459,-0.130176,0.000000
1.180000,-2.055956,-1.610982,-1.497133,0.399202,0.977689,0.034061,0.329413,-0.366569,0.369567,1.219625,-0.353642,2.336050,6.252044,17.006028,1.160685,-0.038787,-0.034880,0.000000,-0.046783,-0.137555,0.000000
1.190000,-2.051948,-1.601224,-1.496773,0.402558,0.974008,0.037873,0.341920,-0.369257,0.392967,1.281410,-0.184113,2.342218,6.102027,16.892251,0.067516,-0.039166,-0.036293,0.000000,-0.029034,-0.144802,-0.000000
1.200000,-2.047905,-1.591502,-1.496375,0.406043,0.970309,0.041920,0.355036,-0.370256,0.416374,1.341606,-0.015948,2.337298,5.934207,16.732932,-1.056176,-0.039367,-0.037777,0.000000,-0.011253,-0.151890,0.000000
1.210000,-2.043826,-1.581818,-1.495934,0.409661,0.966609,0.046200,0.368747,-0.369578,0.439679,1.400149,0.150681,2.321385,5.745306,16.519166,-2.215103,-0.039390,-0.039332,0.000000,0.006541,-0.158804,0.000000
1.220000,-2.039711,-1.572170,-1.495450,0.413419,0.962923,0.050713,0.383033,-0.367250,0.462763,1.456582,0.314605,2.293354,5.538263,16.257693,-3.393809,-0.039237,-0.040955,0.000000,0.024227,-0.165479,0.000000
1.230000,-2.035558,-1.562559,-1.494919,0.417324,0.959269,0.055454,0.397872,-0.363296,0.485507,1.510854,0.475673,2.253463,5.313088,15.947881,-4.586341,-0.038906,-0.042644,0.000000,0.041782,-0.171899,-0.000000
1.240000,-2.031364,-1.552984,-1.494340,0.421379,0.955663,0.060421,0.413242,-0.357748,0.507792,1.562784,0.633399,2.201601,5.069792,15.589098,-5.786745,-0.038402,-0.044395,0.000000,0.059148,-0.178032,0.000000
1.250000,-2.027130,-1.543446,-1.493710,0.425590,0.952119,0.065608,0.429119,-0.350641,0.529499,1.612189,0.787290,2.137721,4.808383,15.180713,-6.989067,-0.037724,-0.046206,0.000000,0.076261,-0.183845,0.000000
1.260000,-2.022852,-1.533942,-1.493027,0.429963,0.948655,0.071009,0.445478,-0.342011,0.550508,1.659051,0.937319,2.061936,4.524827,14.710142,-8.189934,-0.036877,-0.048073,0.000000,0.093105,-0.189319,0.000000
1.270000,-2.018530,-1.524472,-1.492289,0.434501,0.945284,0.076616,0.462290,-0.331911,0.570697,1.702808,1.081862,1.974072,4.223674,14.190170,-9.380495,-0.035864,-0.049993,0.000000,0.109489,-0.194379,0.000000
1.280000,-2.014161,-1.515036,-1.491494,0.439210,0.942021,0.082420,0.479524,-0.320392,0.589950,1.743468,1.220961,1.874381,3.905430,13.621630,-10.554481,-0.034689,-0.051962,0.000000,0.125399,-0.199010,0.000000
1.290000,-2.009745,-1.505631,-1.490640,0.444093,0.938881,0.088411,0.497149,-0.307511,0.608146,1.780861,1.354135,1.763059,3.570600,13.005355,-11.705622,-0.033357,-0.053975,0.000000,0.140761,-0.203178,0.000000
1.300000,-2.005279,-1.496258,-1.489725,0.449154,0.935875,0.094579,0.515130,-0.293331,0.625173,1.814826,1.480912,1.640366,3.219690,12.342177,-12.827647,-0.031876,-0.056026,0.000000,0.155499,-0.206850,0.000000
1.310000,-2.000761,-1.486913,-1.488748,0.454396,0.933018,0.100910,0.533435,-0.277910,0.640914,1.845370,1.601381,1.506400,2.848997,11.618885,-13.908628,-0.030249,-0.058112,0.000000,0.169599,-0.210011,0.000000
1.320000,-1.996190,-1.477597,-1.487707,0.459824,0.930321,0.107392,0.552025,-0.261328,0.655265,1.871945,1.713771,1.362077,2.463750,10.852075,-14.948648,-0.028486,-0.060226,0.000000,0.182839,-0.212590,0.000000
1.330000,-1.991564,-1.468306,-1.486600,0.465438,0.927795,0.114011,0.570861,-0.243661,0.668122,1.894600,1.818286,1.207582,2.064969,10.044298,-15.942128,-0.026595,-0.062364,0.000000,0.195214,-0.214580,-0.000000
1.340000,-1.986881,-1.459040,-1.485426,0.471241,0.925451,0.120750,0.589903,-0.224990,0.679385,1.913203,1.914529,1.043408,1.653673,9.198106,-16.883493,-0.024585,-0.064518,0.000000,0.206654,-0.215953,0.000000
1.350000,-1.982139,-1.449797,-1.484184,0.477236,0.923298,0.127593,0.609111,-0.205399,0.688960,1.927635,2.002129,0.870104,1.230884,8.316052,-17.767164,-0.022465,-0.066682,0.000000,0.217091,-0.216689,0.000000
1.360000,-1.977336,-1.440574,-1.482874,0.483424,0.921346,0.134523,0.628445,-0.184972,0.696753,1.938068,2.081198,0.687738,0.790479,7.389093,-18.573971,-0.020246,-0.068850,0.000000,0.226511,-0.216793,-0.000000
1.370000,-1.972470,-1.431369,-1.481494,0.489805,0.919601,0.141522,0.647858,-0.163806,0.702689,1.943735,2.150330,0.498242,0.341496,6.432796,-19.313595,-0.017939,-0.071016,0.000000,0.234734,-0.216188,0.000000
1.380000,-1.967539,-1.422181,-1.480043,0.496381,0.918072,0.148570,0.667304,-0.141998,0.706694,1.944876,2.209769,0.301703,-0.114170,5.451131,-19.982124,-0.015555,-0.073173,0.000000,0.241765,-0.214894,0.000000
1.390000,-1.962541,-1.413007,-1.478522,0.503152,0.916763,0.155649,0.686740,-0.119644,0.708702,1.941435,2.259282,0.098850,-0.574625,4.448070,-20.575647,-0.013108,-0.075312,0.000000,0.247559,-0.212903,-0.000000
1.400000,-1.957475,-1.403845,-1.476930,0.510116,0.915680,0.162737,0.706118,-0.096846,0.708652,1.933374,2.298673,-0.109547,-1.037972,3.427585,-21.090249,-0.010609,-0.077429,0.000000,0.252080,-0.210216,-0.000000
1.410000,-1.952338,-1.394693,-1.475267,0.517274,0.914827,0.169815,0.725391,-0.073702,0.706487,1.920563,2.328042,-0.323431,-1.499540,2.387253,-21.503021,-0.008070,-0.079514,0.000000,0.255325,-0.206818,0.000000
1.420000,-1.947129,-1.385548,-1.473534,0.524623,0.914207,0.176860,0.744514,-0.050320,0.702171,1.903261,2.346674,-0.540174,-1.960552,1.338223,-21.831375,-0.005506,-0.081563,0.000000,0.257208,-0.202764,-0.000000
1.430000,-1.941845,-1.376408,-1.471730,0.532163,0.913821,0.183851,0.763440,-0.026804,0.695674,1.881359,2.354793,-0.759772,-2.419451,0.285250,-22.073725,-0.002931,-0.083568,0.000000,0.257751,-0.198045,0.000000
1.440000,-1.936485,-1.367270,-1.469857,0.539891,0.913671,0.190766,0.782125,-0.003259,0.686969,1.854884,2.352382,-0.981357,-2.874683,-0.766911,-22.228485,-0.000356,-0.085522,0.000000,0.256953,-0.192681,-0.000000
1.450000,-1.931047,-1.358133,-1.467915,0.547805,0.913756,0.197583,0.800523,0.020209,0.676043,1.823882,2.339473,-1.204045,-3.324694,-1.813506,-22.294069,0.002204,-0.087419,0.000000,0.254823,-0.186694,-0.000000
1.460000,-1.925528,-1.348994,-1.465906,0.555901,0.914074,0.204280,0.818587,0.043495,0.662879,1.788320,2.316125,-1.427758,-3.765570,-2.849242,-22.248134,0.004736,-0.089253,0.000000,0.251379,-0.180093,-0.000000
1.470000,-1.919928,-1.339851,-1.463830,0.564175,0.914625,0.210834,0.836275,0.066497,0.647491,1.748492,2.282515,-1.649635,-4.198402,-3.869968,-22.112392,0.007227,-0.091019,0.000000,0.246655,-0.172953,-0.000000
1.480000,-1.914244,-1.330701,-1.461690,0.572625,0.915403,0.217223,0.853543,0.089112,0.629892,1.704383,2.238791,-1.869709,-4.621925,-4.870995,-21.887799,0.009665,-0.092711,0.000000,0.240687,-0.165287,0.000000
1.490000,-1.908475,-1.321542,-1.459486,0.581245,0.916405,0.223424,0.870349,0.111240,0.610106,1.656089,2.185176,-2.087098,-5.034871,-5.847635,-21.575311,0.012037,-0.094323,0.000000,0.233522,-0.157132,0.000000
1.500000,-1.902619,-1.312372,-1.457222,0.590030,0.917626,0.229417,0.886651,0.132783,0.588162,1.603725,2.121936,-2.300926,-5.435975,-6.795197,-21.175884,0.014332,-0.095852,0.000000,0.225216,-0.148527,0.000000
1.510000,-1.896674,-1.303189,-1.454899,0.598976,0.919059,0.235181,0.902410,0.153644,0.564094,1.547447,2.049053,-2.511067,-5.824820,-7.700629,-20.671828,0.016537,-0.097293,0.000000,0.215793,-0.139510,0.000000
1.520000,-1.890639,-1.293991,-1.452519,0.608076,0.920696,0.240693,0.917587,0.173735,0.537959,1.487314,1.967674,-2.714919,-6.199186,-8.568631,-20.085027,0.018644,-0.098642,0.000000,0.205413,-0.130134,0.000000
1.530000,-1.884512,-1.284775,-1.450086,0.617325,0.922531,0.245933,0.932144,0.192969,0.509816,1.423516,1.877818,-2.912503,-6.557701,-9.395538,-19.418720,0.020643,-0.099895,0.000000,0.194108,-0.120439,-0.000000
1.540000,-1.878292,-1.275539,-1.447602,0.626717,0.924553,0.250883,0.946046,0.211264,0.479732,1.356218,1.779913,-3.103039,-6.898996,-10.177686,-18.676146,0.022524,-0.101050,0.000000,0.181958,-0.110471,-0.000000
1.550000,-1.871977,-1.266283,-1.445069,0.636244,0.926753,0.255522,0.959258,0.228542,0.447782,1.285598,1.674425,-3.285782,-7.221699,-10.911411,-17.860543,0.024279,-0.102104,0.000000,0.169046,-0.100275,-0.000000
1.560000,-1.865567,-1.257004,-1.442492,0.645900,0.929120,0.259832,0.971744,0.244723,0.414040,1.211550,1.561319,-3.460536,-7.516856,-11.579427,-16.962058,0.025902,-0.103055,0.000000,0.155401,-0.089862,0.000000
1.570000,-1.859059,-1.247700,-1.439874,0.655677,0.931643,0.263797,0.983479,0.259747,0.378602,1.134991,1.442409,-3.625391,-7.791609,-12.193359,-15.998625,0.027385,-0.103902,0.000000,0.141250,-0.079365,0.000000
1.580000,-1.852453,-1.238370,-1.437218,0.665567,0.934311,0.267399,0.994435,0.273552,0.341565,1.055787,1.317639,-3.780308,-8.045516,-12.751209,-14.975086,0.028725,-0.104643,0.000000,0.126616,-0.068786,0.000000
1.590000,-1.845747,-1.229013,-1.434527,0.675563,0.937110,0.270623,1.004587,0.286082,0.303031,0.974151,1.187578,-3.924709,-8.278136,-13.250982,-13.896283,0.029916,-0.105278,0.000000,0.111587,-0.058169,0.000000
1.600000,-1.838941,-1.219628,-1.431806,0.685656,0.940028,0.273455,1.013911,0.297288,0.263108,0.890297,1.052819,-4.058065,-8.489027,-13.690681,-12.767057,0.030956,-0.105807,0.000000,0.096251,-0.047552,0.000000
1.610000,-1.832034,-1.210212,-1.429059,0.695838,0.943052,0.275881,1.022384,0.307118,0.221905,0.804224,0.913347,-4.180128,-8.672167,-14.052528,-11.586442,0.031840,-0.106229,0.000000,0.080628,-0.036950,-0.000000
1.620000,-1.825024,-1.200766,-1.426290,0.706101,0.946166,0.277889,1.029990,0.315544,0.179545,0.716678,0.771271,-4.289920,-8.833377,-14.352241,-10.365799,0.032568,-0.106546,0.000000,0.064959,-0.026459,-0.000000
1.630000,-1.817911,-1.191289,-1.423503,0.716435,0.949358,0.279469,1.036712,0.322535,0.136148,0.627628,0.626509,-4.387329,-8.972899,-14.589754,-9.110683,0.033139,-0.106759,0.000000,0.049248,-0.016083,-0.000000
1.640000,-1.810695,-1.181779,-1.420702,0.726832,0.952612,0.280609,1.042538,0.328067,0.091841,0.537291,0.479684,-4.472037,-9.090974,-14.765005,-7.826648,0.033553,-0.106869,0.000000,0.033573,-0.005851,0.000000
1.650000,-1.803375,-1.172236,-1.417892,0.737283,0.955914,0.281303,1.047454,0.332124,0.046751,0.445880,0.331417,-4.543784,-9.187842,-14.877928,-6.519246,0.033811,-0.106877,0.000000,0.018005,0.004210,0.000000
1.660000,-1.795949,-1.162661,-1.415078,0.747778,0.959250,0.281542,1.051451,0.334686,0.001010,0.353424,0.181746,-4.602304,-9.259197,-14.913625,-5.195514,0.033913,-0.106785,0.000000,0.002553,0.014093,-0.000000
1.670000,-1.788419,-1.153051,-1.412263,0.758309,0.962603,0.281321,1.054521,0.335758,-0.045251,0.260560,0.032684,-4.647587,-9.310385,-14.888683,-3.859340,0.033863,-0.106595,0.000000,-0.012577,0.023736,-0.000000
1.680000,-1.780783,-1.143409,-1.409453,0.768865,0.965960,0.280636,1.056660,0.335342,-0.091897,0.167281,-0.115832,-4.679468,-9.342205,-14.804855,-2.516098,0.033663,-0.106311,0.000000,-0.027396,0.033140,-0.000000
1.690000,-1.773042,-1.133732,-1.406652,0.779439,0.969305,0.279483,1.057866,0.333446,-0.138796,0.073778,-0.263222,-4.697903,-9.355457,-14.663892,-1.171159,0.033316,-0.105933,0.000000,-0.041851,0.042293,0.000000
1.700000,-1.765194,-1.124023,-1.403865,0.790019,0.972624,0.277860,1.058136,0.330083,-0.185811,-0.019769,-0.408925,-4.702903,-9.350937,-14.467548,0.170104,0.032827,-0.105465,0.000000,-0.055894,0.051181,-0.000000
1.710000,-1.757241,-1.114280,-1.401096,0.800598,0.975902,0.275766,1.057470,0.325270,-0.232806,-0.113290,-0.552833,-4.694243,-9.326793,-14.206506,1.495047,0.032199,-0.104910,0.000000,-0.069526,0.059804,-0.000000
1.720000,-1.749182,-1.104505,-1.398351,0.811166,0.979125,0.273204,1.055871,0.319036,-0.279652,-0.206370,-0.693381,-4.672722,-9.286800,-13.894942,2.806461,0.031438,-0.104269,0.000000,-0.082607,0.068138,0.000000
1.730000,-1.741018,-1.094698,-1.395634,0.821713,0.982278,0.270174,1.053344,0.311413,-0.326217,-0.298976,-0.830573,-4.638174,-9.232080,-13.535964,4.099866,0.030549,-0.103547,0.000000,-0.095154,0.076189,0.000000
1.740000,-1.732748,-1.084859,-1.392949,0.832230,0.985348,0.266681,1.049894,0.302437,-0.372372,-0.390966,-0.963952,-4.590800,-9.163757,-13.132680,5.370780,0.029537,-0.102746,0.000000,-0.107141,0.083954,-0.000000
1.750000,-1.724373,-1.074991,-1.390302,0.842707,0.988322,0.262729,1.045527,0.292148,-0.417991,-0.482210,-1.093090,-4.530848,-9.082955,-12.688197,6.614721,0.028408,-0.101868,0.000000,-0.118545,0.091436,-0.000000
1.760000,-1.715894,-1.065093,-1.387696,0.853137,0.991187,0.258323,1.040252,0.280589,-0.462944,-0.572599,-1.217812,-4.458187,-8.990521,-12.199989,7.816515,0.027168,-0.100917,0.000000,-0.129368,0.098635,-0.000000
1.770000,-1.707311,-1.055168,-1.385137,0.863510,0.993930,0.253472,1.034078,0.267809,-0.507115,-0.661999,-1.337227,-4.374156,-8.887887,-11.677487,8.983683,0.025823,-0.099896,0.000000,-0.139550,0.105563,-0.000000
1.780000,-1.698624,-1.045215,-1.382628,0.873816,0.996539,0.248184,1.027016,0.253862,-0.550389,-0.750326,-1.451260,-4.278639,-8.776210,-11.124489,10.113054,0.024379,-0.098806,0.000000,-0.149105,0.112225,-0.000000
1.790000,-1.689835,-1.035237,-1.380174,0.884047,0.999004,0.242468,1.019076,0.238803,-0.592651,-0.837497,-1.559627,-4.172031,-8.656645,-10.544792,11.201457,0.022843,-0.097651,0.000000,-0.158026,0.118627,-0.000000
1.800000,-1.680944,-1.025236,-1.377780,0.894194,1.001312,0.236335,1.010270,0.222689,-0.633794,-0.923437,-1.662080,-4.054757,-8.530351,-9.942194,12.245718,0.021220,-0.096434,0.000000,-0.166315,0.124780,0.000000
1.810000,-1.671951,-1.015212,-1.375449,0.904249,1.003454,0.229796,1.000612,0.205582,-0.673707,-1.008006,-1.758403,-3.926814,-8.400474,-9.320616,13.231028,0.019518,-0.095156,0.000000,-0.173970,0.130684,0.000000
1.820000,-1.662859,-1.005167,-1.373185,0.914204,1.005421,0.222865,0.990114,0.187542,-0.712298,-1.091342,-1.848436,-3.789781,-8.265936,-8.683716,14.167279,0.017743,-0.093821,0.000000,-0.181002,0.136378,-0.000000
1.830000,-1.653668,-0.995104,-1.370993,0.924049,1.007202,0.215555,0.978790,0.168634,-0.749472,-1.173312,-1.932039,-3.643638,-8.127651,-8.035276,15.052725,0.015900,-0.092429,0.000000,-0.187417,0.141862,0.000000
1.840000,-1.644378,-0.985024,-1.368876,0.933777,1.008791,0.207880,0.966653,0.148923,-0.785142,-1.253885,-2.009115,-3.488901,-7.986530,-7.379078,15.885618,0.013997,-0.090984,0.000000,-0.193225,0.147149,-0.000000
1.850000,-1.634992,-0.974929,-1.366837,0.943379,1.010178,0.199857,0.953717,0.128474,-0.819224,-1.333037,-2.079607,-3.326106,-7.843487,-6.718905,16.664213,0.012038,-0.089486,0.000000,-0.198441,0.152253,-0.000000
1.860000,-1.625511,-0.964821,-1.364880,0.952849,1.011358,0.191501,0.939998,0.107355,-0.851635,-1.410607,-2.143293,-3.155383,-7.703082,-6.063574,17.376141,0.010030,-0.087939,0.000000,-0.203061,0.157171,-0.000000
1.870000,-1.615936,-0.954702,-1.363008,0.962177,1.012323,0.182830,0.925509,0.085630,-0.882308,-1.486934,-2.200663,-2.978298,-7.562133,-5.411216,18.031578,0.007979,-0.086343,0.000000,-0.207148,0.161958,-0.000000
1.880000,-1.606268,-0.944575,-1.361224,0.971356,1.013068,0.173861,0.910264,0.063363,-0.911180,-1.561850,-2.251538,-2.794942,-7.421108,-4.764994,18.630078,0.005889,-0.084700,0.000000,-0.210700,0.166609,0.000000
1.890000,-1.596509,-0.934442,-1.359531,0.980380,1.013589,0.164613,0.894277,0.040621,-0.938188,-1.635357,-2.295994,-2.605887,-7.280472,-4.128076,19.171195,0.003766,-0.083011,0.000000,-0.213738,0.171138,0.000000
1.900000,-1.586661,-0.924304,-1.357933,0.989239,1.013880,0.155104,0.877562,0.017465,-0.963280,-1.707462,-2.334141,-2.411711,-7.140692,-3.503627,19.654483,0.001616,-0.081278,0.000000,-0.216283,0.175560,-0.000000
1.910000,-1.576725,-0.914165,-1.356430,0.997928,1.013937,0.145353,0.860134,-0.006038,-0.986404,-1.778002,-2.365789,-2.212657,-7.006617,-2.903156,20.071036,-0.000558,-0.079501,0.000000,-0.218329,0.179871,-0.000000
1.920000,-1.566703,-0.904026,-1.355026,1.006440,1.013758,0.135382,0.842006,-0.029831,-1.007520,-1.847403,-2.391891,-2.010104,-6.873793,-2.320463,20.429905,-0.002749,-0.077681,0.000000,-0.219973,0.184126,0.000000
1.930000,-1.556597,-0.893890,-1.353723,1.014766,1.013339,0.125210,0.823191,-0.053857,-1.026595,-1.915482,-2.412264,-1.804249,-6.742151,-1.757692,20.731678,-0.004956,-0.075818,0.000000,-0.221204,0.188319,-0.000000
1.940000,-1.546408,-0.883760,-1.352523,1.022901,1.012680,0.114857,0.803701,-0.078058,-1.043596,-1.982250,-2.427118,-1.595659,-6.611620,-1.216987,20.976947,-0.007172,-0.073914,0.000000,-0.222049,0.192461,-0.000000
1.950000,-1.536140,-0.873638,-1.351426,1.030838,1.011778,0.104345,0.783550,-0.102382,-1.058501,-2.047717,-2.436685,-1.384897,-6.482131,-0.700490,21.166300,-0.009395,-0.071969,0.000000,-0.222533,0.196564,0.000000
1.960000,-1.525792,-0.863525,-1.350436,1.038570,1.010632,0.093694,0.762753,-0.126771,-1.071286,-2.111732,-2.440825,-1.172282,-6.357727,-0.220214,21.294375,-0.011621,-0.069983,0.000000,-0.222646,0.200623,-0.000000
1.970000,-1.515369,-0.853426,-1.349553,1.046091,1.009242,0.082926,0.741320,-0.151183,-1.081943,-2.174690,-2.440739,-0.958923,-6.233720,0.232773,21.368443,-0.013847,-0.067956,0.000000,-0.222501,0.204685,0.000000
1.980000,-1.504871,-0.843341,-1.348778,1.053394,1.007608,0.072062,0.719263,-0.175571,-1.090463,-2.236406,-2.436264,-0.745089,-6.109535,0.657536,21.389823,-0.016070,-0.065889,0.000000,-0.222081,0.208741,-0.000000
1.990000,-1.494302,-0.833275,-1.348112,1.060474,1.005731,0.061124,0.696596,-0.199894,-1.096845,-2.296878,-2.427686,-0.531298,-5.984598,1.053140,21.359835,-0.018288,-0.063781,0.000000,-0.221415,0.212798,-0.000000
2.000000,-1.483663,-0.823228,-1.347556,1.067324,1.003611,0.050133,0.673330,-0.224112,-1.101091,-2.356094,-2.415302,-0.318059,-5.858336,1.418649,21.279797,-0.020498,-0.061632,0.000000,-0.220526,0.216863,0.000000
2.010000,-1.472956,-0.813203,-1.347109,1.073939,1.001249,0.039109,0.649479,-0.248184,-1.103208,-2.413921,-2.399033,-0.105720,-5.733125,1.743434,21.147373,-0.022698,-0.059443,0.000000,-0.219406,0.220930,-0.000000
2.020000,-1.462185,-0.803203,-1.346773,1.080312,0.998648,0.028075,0.625055,-0.272083,-1.103211,-2.470615,-2.380103,0.104895,-5.605079,2.037440,20.967984,-0.024886,-0.057213,0.000000,-0.218162,0.225029,0.000000
2.030000,-1.451351,-0.793231,-1.346548,1.086438,0.995808,0.017052,0.600071,-0.295777,-1.101117,-2.526010,-2.358386,0.313489,-5.473261,2.300919,20.743398,-0.027060,-0.054941,0.000000,-0.216779,0.229151,0.000000
2.040000,-1.440457,-0.783288,-1.346432,1.092311,0.992733,0.006060,0.574540,-0.319242,-1.096949,-2.580065,-2.334185,0.519618,-5.336737,2.534120,20.475380,-0.029221,-0.052628,0.000000,-0.215281,0.233296,0.000000
2.050000,-1.429505,-0.773377,-1.346426,1.097927,0.989424,-0.004880,0.548475,-0.342454,-1.090734,-2.632726,-2.307803,0.722858,-5.194571,2.737297,20.165696,-0.031366,-0.050273,0.000000,-0.213689,0.237463,0.000000
2.060000,-1.418499,-0.763500,-1.346530,1.103279,0.985885,-0.015748,0.521891,-0.365388,-1.082502,-2.683891,-2.279234,0.922870,-5.046927,2.903003,19.814324,-0.033494,-0.047876,0.000000,-0.211997,0.241648,-0.000000
2.070000,-1.407441,-0.753660,-1.346741,1.108363,0.982117,-0.026524,0.494802,-0.388033,-1.072289,-2.733590,-2.249495,1.119098,-4.891635,3.040129,19.425038,-0.035605,-0.045437,0.000000,-0.210293,0.245856,-0.000000
2.080000,-1.396333,-0.743859,-1.347060,1.113174,0.978125,-0.037187,0.467224,-0.410374,-1.060134,-2.781694,-2.218523,1.311251,-4.727624,3.149869,18.999825,-0.037700,-0.042956,0.000000,-0.208564,0.250077,-0.000000
2.090000,-1.385178,-0.734098,-1.347484,1.117706,0.973911,-0.047720,0.439174,-0.432400,-1.046079,-2.828110,-2.186585,1.498981,-4.553825,3.233416,18.540670,-0.039777,-0.040432,0.000000,-0.206828,0.254306,-0.000000
2.100000,-1.373979,-0.724381,-1.348014,1.121956,0.969478,-0.058103,0.410668,-0.454104,-1.030170,-2.872735,-2.153938,1.681958,-4.369168,3.291965,18.049559,-0.041836,-0.037866,0.000000,-0.205103,0.258532,-0.000000
2.110000,-1.362740,-0.714710,-1.348646,1.125918,0.964830,-0.068317,0.381725,-0.475476,-1.012456,-2.915497,-2.120645,1.859885,-4.171496,3.322170,17.528157,-0.043879,-0.035257,0.000000,-0.203388,0.262751,0.000000
2.120000,-1.351462,-0.705085,-1.349379,1.129589,0.959970,-0.078346,0.352365,-0.496516,-0.992990,-2.956170,-2.087365,2.032442,-3.960958,3.330319,16.978809,-0.045904,-0.032606,0.000000,-0.201735,0.266941,-0.000000
2.130000,-1.340149,-0.695511,-1.350212,1.132964,0.954901,-0.088171,0.322609,-0.517223,-0.971826,-2.994670,-2.054107,2.199375,-3.736616,3.318162,16.403540,-0.047914,-0.029913,0.000000,-0.200141,0.271093,-0.000000
2.140000,-1.328804,-0.685988,-1.351142,1.136040,0.949626,-0.097777,0.292479,-0.537599,-0.949022,-3.030853,-2.021064,2.360433,-3.497532,3.287448,15.804374,-0.049907,-0.027178,0.000000,-0.198616,0.275193,-0.000000
2.150000,-1.317429,-0.676519,-1.352167,1.138812,0.944150,-0.107147,0.262000,-0.557646,-0.924638,-3.064568,-1.988414,2.515389,-3.242770,3.239927,15.183337,-0.051886,-0.024402,0.000000,-0.197170,0.279222,-0.000000
2.160000,-1.306029,-0.667106,-1.353284,1.141279,0.938474,-0.116265,0.231195,-0.577368,-0.898736,-3.095779,-1.956265,2.663998,-2.968209,3.176072,14.543367,-0.053851,-0.021586,0.000000,-0.195807,0.283175,0.000000
2.170000,-1.294605,-0.657750,-1.354491,1.143435,0.932603,-0.125116,0.200094,-0.596773,-0.871380,-3.124017,-1.924879,2.806156,-2.676484,3.099065,13.885463,-0.055803,-0.018731,0.000000,-0.194546,0.287003,-0.000000
2.180000,-1.283161,-0.648454,-1.355786,1.145280,0.926540,-0.133688,0.168725,-0.615869,-0.842635,-3.149250,-1.894321,2.941654,-2.367048,3.010811,13.211539,-0.057742,-0.015837,0.000000,-0.193387,0.290699,0.000000
2.190000,-1.271700,-0.639220,-1.357164,1.146809,0.920287,-0.141965,0.137119,-0.634663,-0.812569,-3.171297,-1.864694,3.070340,-2.039351,2.913215,12.523506,-0.059671,-0.012908,0.000000,-0.192335,0.294239,-0.000000
2.200000,-1.260226,-0.630049,-1.358624,1.148021,0.913848,-0.149935,0.105310,-0.653166,-0.781251,-3.189974,-1.836082,3.192083,-1.692848,2.808182,11.823279,-0.061589,-0.009943,0.000000,-0.191391,0.297598,-0.000000
2.210000,-1.248741,-0.620944,-1.360162,1.148915,0.907225,-0.157586,0.073329,-0.671388,-0.748752,-3.205287,-1.808557,3.306691,-1.322004,2.697821,11.114806,-0.063499,-0.006945,0.000000,-0.190556,0.300770,-0.000000
2.220000,-1.237249,-0.611905,-1.361774,1.149487,0.900421,-0.164906,0.041217,-0.689341,-0.715141,-3.216572,-1.782146,3.414260,-0.931869,2.583810,10.397715,-0.065401,-0.003916,0.000000,-0.189831,0.303683,0.000000
2.230000,-1.225752,-0.602936,-1.363459,1.149739,0.893439,-0.171885,0.009011,-0.707035,-0.680491,-3.223860,-1.756887,3.514622,-0.522503,2.468029,9.673670,-0.067296,-0.000859,0.000000,-0.189213,0.306330,0.000000
2.240000,-1.214255,-0.594037,-1.365211,1.149667,0.886281,-0.178513,-0.023246,-0.724482,-0.644873,-3.226959,-1.732785,3.607715,-0.093969,2.352359,8.944333,-0.069185,0.002223,0.000000,-0.188698,0.308681,0.000000
2.250000,-1.202760,-0.585211,-1.367028,1.149274,0.878950,-0.184780,-0.055513,-0.741694,-0.608361,-3.225676,-1.709833,3.693496,0.353669,2.238679,8.211369,-0.071070,0.005328,0.000000,-0.188281,0.310708,0.000000
2.260000,-1.191271,-0.576459,-1.368905,1.148557,0.871448,-0.190677,-0.087747,-0.758685,-0.571029,-3.220036,-1.688202,3.771817,0.825772,2.133996,7.479453,-0.072951,0.008452,0.000000,-0.187974,0.312400,0.000000
2.270000,-1.179790,-0.567782,-1.370840,1.147519,0.863777,-0.196198,-0.119898,-0.775462,-0.532949,-3.209342,-1.667365,3.842949,1.316191,2.034438,6.746868,-0.074830,0.011592,0.000000,-0.187724,0.313677,-0.000000
2.280000,-1.168321,-0.559184,-1.372828,1.146160,0.855939,-0.201334,-0.151917,-0.792035,-0.494194,-3.193654,-1.647492,3.906756,1.824200,1.941257,6.014908,-0.076706,0.014742,0.000000,-0.187543,0.314531,0.000000
2.290000,-1.156868,-0.550664,-1.374865,1.144481,0.847937,-0.206080,-0.183754,-0.808415,-0.454838,-3.172801,-1.628514,3.963253,2.349070,1.855705,5.284868,-0.078581,0.017899,0.000000,-0.187420,0.314930,0.000000
2.300000,-1.145433,-0.542225,-1.376948,1.142486,0.839772,-0.210429,-0.215355,-0.824608,-0.414954,-3.146619,-1.610348,4.012465,2.890077,1.779036,4.558043,-0.080455,0.021059,0.000000,-0.187343,0.314842,0.000000
2.310000,-1.134019,-0.533869,-1.379073,1.140175,0.831445,-0.214377,-0.246670,-0.840626,-0.374615,-3.115182,-1.593118,4.054283,3.452382,1.718015,3.839413,-0.082328,0.024215,0.000000,-0.187320,0.314260,-0.000000
2.320000,-1.122630,-0.525597,-1.381235,1.137553,0.822960,-0.217920,-0.277640,-0.856473,-0.333892,-3.077788,-1.576198,4.089106,4.028649,1.667706,3.126136,-0.084201,0.027363,0.000000,-0.187289,0.313098,-0.000000
2.330000,-1.111269,-0.517411,-1.383430,1.134624,0.814316,-0.221054,-0.308207,-0.872152,-0.292856,-3.034567,-1.559726,4.116826,4.617430,1.628689,2.419054,-0.086074,0.030497,0.000000,-0.187257,0.311351,-0.000000
2.340000,-1.099939,-0.509311,-1.385654,1.131391,0.805517,-0.223776,-0.338312,-0.887668,-0.251579,-2.985402,-1.543585,4.137511,5.217277,1.601541,1.719010,-0.087946,0.033611,0.000000,-0.187211,0.308990,-0.000000
2.350000,-1.088642,-0.501301,-1.387904,1.127859,0.796564,-0.226085,-0.367895,-0.903024,-0.210129,-2.930189,-1.527654,4.151233,5.826742,1.586839,1.026847,-0.089818,0.036699,0.000000,-0.187133,0.305989,-0.000000
2.360000,-1.077382,-0.493381,-1.390175,1.124035,0.787457,-0.227978,-0.396897,-0.918223,-0.168579,-2.869045,-1.511900,4.157926,6.449559,1.587577,0.347217,-0.091689,0.039754,0.000000,-0.187016,0.302338,-0.000000
2.370000,-1.066162,-0.485552,-1.392462,1.119924,0.778200,-0.229456,-0.425255,-0.933262,-0.126993,-2.801409,-1.495966,4.158038,7.078465,1.601621,-0.323312,-0.093558,0.042769,0.000000,-0.186824,0.297967,0.000000
2.380000,-1.054985,-0.477817,-1.394762,1.115532,0.768793,-0.230518,-0.452904,-0.948141,-0.085440,-2.727462,-1.479823,4.151491,7.711377,1.629254,-0.984363,-0.095425,0.045737,0.000000,-0.186548,0.292875,-0.000000
2.390000,-1.043853,-0.470177,-1.397071,1.110868,0.759237,-0.231165,-0.479783,-0.962857,-0.043985,-2.647175,-1.463334,4.138383,8.346213,1.670759,-1.635561,-0.097289,0.048651,0.000000,-0.186170,0.287041,0.000000
2.400000,-1.032768,-0.462633,-1.399384,1.105939,0.749536,-0.231399,-0.505827,-0.977406,-0.002694,-2.560539,-1.446360,4.118814,8.980892,1.726417,-2.276529,-0.099148,0.051503,0.000000,-0.185673,0.280445,0.000000
2.410000,-1.021735,-0.455187,-1.401698,1.100755,0.739690,-0.231220,-0.530974,-0.991784,0.038369,-2.467672,-1.428938,4.092765,9.616032,1.801069,-2.903793,-0.101002,0.054285,0.000000,-0.185054,0.273084,-0.000000
2.420000,-1.010754,-0.447839,-1.404007,1.095323,0.729701,-0.230632,-0.555159,-1.005982,0.079141,-2.368354,-1.410495,4.060635,10.246519,1.889881,-3.520453,-0.102849,0.056990,0.000000,-0.184254,0.264919,0.000000
2.430000,-0.999829,-0.440593,-1.406309,1.089655,0.719571,-0.229638,-0.578320,-1.019991,0.119561,-2.262765,-1.391094,4.022392,10.869941,1.992576,-4.126510,-0.104686,0.059609,0.000000,-0.183275,0.255952,0.000000
2.440000,-0.988962,-0.433448,-1.408599,1.083760,0.709302,-0.228242,-0.600394,-1.033801,0.159568,-2.150987,-1.370598,3.978140,11.483885,2.108878,-4.721969,-0.106513,0.062134,0.000000,-0.182096,0.246175,0.000000
2.450000,-0.978155,-0.426407,-1.410872,1.077651,0.698896,-0.226449,-0.621319,-1.047399,0.199104,-2.033127,-1.348872,3.927987,12.085938,2.238512,-5.306832,-0.108328,0.064558,0.000000,-0.180700,0.235586,0.000000
2.460000,-0.967410,-0.419471,-1.413126,1.071338,0.688355,-0.224262,-0.641037,-1.060775,0.238108,-1.909338,-1.325900,3.871985,12.674243,2.384124,-5.879745,-0.110127,0.066871,0.000000,-0.179080,0.224186,0.000000
2.470000,-0.956728,-0.412641,-1.415356,1.064834,0.677681,-0.221688,-0.659487,-1.073912,0.276525,-1.779723,-1.301279,3.810367,13.245763,2.542157,-6.442233,-0.111908,0.069066,0.000000,-0.177190,0.211975,-0.000000
2.480000,-0.946113,-0.405918,-1.417559,1.058153,0.666877,-0.218734,-0.676612,-1.086795,0.314297,-1.644487,-1.275018,3.743175,13.798017,2.711978,-6.994465,-0.113670,0.071134,0.000000,-0.175026,0.198961,-0.000000
2.490000,-0.935566,-0.399304,-1.419730,1.051307,0.655946,-0.215405,-0.692358,-1.099406,0.351370,-1.503835,-1.247002,3.670511,14.328526,2.892951,-7.536608,-0.115408,0.073068,0.000000,-0.172570,0.185158,-0.000000
2.500000,-0.925088,-0.392799,-1.421866,1.044310,0.644890,-0.211709,-0.706672,-1.111729,0.387689,-1.357997,-1.217124,3.592476,14.834807,3.084443,-8.068832,-0.117120,0.074860,0.000000,-0.169807,0.170578,0.000000
2.510000,-0.914680,-0.386406,-1.423963,1.037178,0.633712,-0.207654,-0.719501,-1.123743,0.423202,-1.207148,-1.185311,3.509211,15.312370,3.286585,-8.592414,-0.118803,0.076501,0.000000,-0.166723,0.155235,0.000000
2.520000,-0.904345,-0.380125,-1.426018,1.029925,0.622416,-0.203248,-0.730799,-1.135428,0.457856,-1.051756,-1.151396,3.420709,15.760990,3.497883,-9.106278,-0.120453,0.077984,0.000000,-0.163295,0.139172,-0.000000
2.530000,-0.894082,-0.373958,-1.428027,1.022567,0.611005,-0.198500,-0.740522,-1.146763,0.491600,-0.892032,-1.115325,3.327118,16.178433,3.717611,-9.610456,-0.122068,0.079302,0.000000,-0.159513,0.122406,0.000000
2.540000,-0.883894,-0.367906,-1.429986,1.015120,0.599482,-0.193419,-0.748626,-1.157727,0.524382,-0.728299,-1.077018,3.228532,16.562464,3.945040,-10.104982,-0.123642,0.080448,0.000000,-0.155363,0.104970,0.000000
2.550000,-0.873780,-0.361969,-1.431894,1.007600,0.587852,-0.188015,-0.755075,-1.168296,0.556154,-0.560902,-1.036401,3.125050,16.910848,4.179442,-10.589888,-0.125174,0.081415,0.000000,-0.150832,0.086900,-0.000000
2.560000,-0.863742,-0.356149,-1.433746,1.000024,0.576118,-0.182299,-0.759832,-1.178447,0.586868,-0.390026,-0.993432,3.016900,17.216742,4.420685,-11.068563,-0.126658,0.082198,0.000000,-0.145913,0.068218,-0.000000
2.570000,-0.853780,-0.350447,-1.435539,0.992409,0.564284,-0.176282,-0.762866,-1.188157,0.616476,-0.216493,-0.947996,2.903862,17.483084,4.667373,-11.537273,-0.128091,0.082789,0.000000,-0.140584,0.049013,-0.000000
2.580000,-0.843894,-0.344864,-1.437270,0.984773,0.552356,-0.169974,-0.764153,-1.197399,0.644930,-0.040502,-0.900069,2.786189,17.708204,4.918705,-11.995640,-0.129468,0.083184,0.000000,-0.134840,0.029313,-0.000000
2.590000,-0.834084,-0.339400,-1.438937,0.977132,0.540338,-0.163387,-0.763670,-1.206150,0.672185,0.137528,-0.849609,2.663985,17.890433,5.173879,-12.443285,-0.130786,0.083379,0.000000,-0.128674,0.009170,-0.000000
2.600000,-0.824351,-0.334057,-1.440537,0.969505,0.528235,-0.156534,-0.761397,-1.214383,0.698195,0.317159,-0.796581,2.537360,18.028098,5.432096,-12.879831,-0.132040,0.083368,0.000000,-0.122078,-0.011358,-0.000000
2.610000,-0.814694,-0.328836,-1.442067,0.961910,0.516052,-0.149427,-0.757320,-1.222073,0.722920,0.498214,-0.740968,2.406605,18.112509,5.692765,-13.309412,-0.133226,0.083148,0.000000,-0.115050,-0.032241,-0.000000
2.620000,-0.805113,-0.323736,-1.443525,0.954365,0.503795,-0.142080,-0.751431,-1.229193,0.746313,0.679565,-0.682731,2.271414,18.149877,5.954848,-13.726584,-0.134340,0.082716,0.000000,-0.107577,-0.053345,-0.000000
2.630000,-0.795606,-0.318760,-1.444908,0.946888,0.491470,-0.134506,-0.743728,-1.235718,0.768334,0.861052,-0.621869,2.132118,18.139391,6.217520,-14.130417,-0.135376,0.082071,0.000000,-0.099661,-0.074636,0.000000
2.640000,-0.786175,-0.313907,-1.446214,0.939496,0.479083,-0.126718,-0.734211,-1.241622,0.788942,1.042191,-0.558381,1.988854,18.080242,6.479954,-14.519980,-0.136331,0.081210,0.000000,-0.091302,-0.096043,0.000000
2.650000,-0.776816,-0.309179,-1.447442,0.932209,0.466640,-0.118732,-0.722887,-1.246877,0.808099,1.222492,-0.492273,1.841769,17.971618,6.741323,-14.894342,-0.137201,0.080132,0.000000,-0.082501,-0.117494,0.000000
2.660000,-0.767530,-0.304575,-1.448588,0.925045,0.454148,-0.110561,-0.709762,-1.251459,0.825767,1.401809,-0.423562,1.691180,17.803775,7.000829,-15.256608,-0.137980,0.078837,0.000000,-0.073264,-0.138950,0.000000
2.670000,-0.758315,-0.300096,-1.449653,0.918020,0.441613,-0.102222,-0.694857,-1.255340,0.841910,1.578800,-0.352267,1.536875,17.585931,7.257615,-15.601317,-0.138665,0.077327,0.000000,-0.063590,-0.160244,0.000000
2.680000,-0.749169,-0.295742,-1.450632,0.911153,0.429043,-0.093728,-0.678194,-1.258496,0.856494,1.753362,-0.278421,1.379217,17.318369,7.510849,-15.927045,-0.139250,0.075602,0.000000,-0.053491,-0.181339,0.000000
2.690000,-0.740091,-0.291515,-1.451527,0.904462,0.416446,-0.085097,-0.659799,-1.260900,0.869484,1.925002,-0.202065,1.218403,17.001373,7.759703,-16.232367,-0.139733,0.073665,0.000000,-0.042976,-0.202153,0.000000
2.700000,-0.731079,-0.287414,-1.452334,0.897963,0.403828,-0.076344,-0.639705,-1.262529,0.880852,2.093226,-0.123245,1.054643,16.635227,8.003347,-16.515857,-0.140109,0.071520,0.000000,-0.032059,-0.222607,0.000000
2.710000,-0.722131,-0.283438,-1.453053,0.891673,0.391198,-0.067486,-0.617944,-1.263357,0.890569,2.257936,-0.042014,0.888235,16.210305,8.240839,-16.777899,-0.140373,0.069170,0.000000,-0.020755,-0.242662,-0.000000
2.720000,-0.713245,-0.279590,-1.453683,0.885609,0.378564,-0.058538,-0.594562,-1.263361,0.898608,2.417717,0.041554,0.719248,15.738013,8.471475,-17.015038,-0.140522,0.066621,0.000000,-0.009081,-0.262133,0.000000
2.730000,-0.704418,-0.275867,-1.454224,0.879787,0.365933,-0.049519,-0.569606,-1.262518,0.904946,2.572543,0.127390,0.548022,15.219848,8.694437,-17.225628,-0.140553,0.063877,0.000000,0.002942,-0.280990,0.000000
2.740000,-0.695648,-0.272271,-1.454674,0.874222,0.353316,-0.040445,-0.543129,-1.260806,0.909562,2.721966,0.215415,0.374830,14.657308,8.908909,-17.408023,-0.140463,0.060947,0.000000,0.015291,-0.299153,-0.000000
2.750000,-0.686933,-0.268801,-1.455032,0.868930,0.340720,-0.031334,-0.515186,-1.258203,0.912437,2.865547,0.305538,0.199961,14.051889,9.114076,-17.560577,-0.140247,0.057837,0.000000,0.027939,-0.316548,-0.000000
2.760000,-0.678269,-0.265456,-1.455300,0.863923,0.328155,-0.022202,-0.485835,-1.254688,0.913556,3.003239,0.397679,0.023656,13.395666,9.308692,-17.679932,-0.139903,0.054556,0.000000,0.040862,-0.333142,0.000000
2.770000,-0.669653,-0.262238,-1.455476,0.859217,0.315630,-0.013068,-0.455144,-1.250243,0.912907,3.133752,0.491694,-0.153604,12.700712,9.492421,-17.766363,-0.139429,0.051112,0.000000,0.054023,-0.348766,-0.000000
2.780000,-0.661083,-0.259144,-1.455562,0.854825,0.303153,-0.003950,-0.423183,-1.244849,0.910482,3.257133,0.587489,-0.331557,11.969679,9.664500,-17.818432,-0.138822,0.047515,0.000000,0.067391,-0.363402,-0.000000
2.790000,-0.652556,-0.256174,-1.455556,0.850758,0.290736,0.005135,-0.390026,-1.238488,0.906275,3.373034,0.684943,-0.509853,11.205216,9.824164,-17.834703,-0.138080,0.043777,0.000000,0.080932,-0.376989,0.000000
2.800000,-0.644067,-0.253329,-1.455459,0.847028,0.278387,0.014170,-0.355749,-1.231145,0.900285,3.481134,0.783928,-0.688127,10.409976,9.970648,-17.813739,-0.137203,0.039907,0.000000,0.094608,-0.389474,-0.000000
2.810000,-0.635614,-0.250606,-1.455272,0.843646,0.266116,0.023135,-0.320428,-1.222804,0.892511,3.581383,0.884317,-0.866213,9.580470,10.103005,-17.748702,-0.136188,0.035917,0.000000,0.108386,-0.400835,-0.000000
2.820000,-0.627193,-0.248006,-1.454997,0.840622,0.253934,0.032014,-0.284149,-1.213454,0.882963,3.672935,0.985948,-1.043211,8.726239,10.220677,-17.644218,-0.135035,0.031819,0.000000,0.122216,-0.410963,0.000000
2.830000,-0.618800,-0.245527,-1.454632,0.837966,0.241851,0.040789,-0.246998,-1.203082,0.871651,3.755836,1.088679,-1.218963,7.850686,10.322923,-17.499511,-0.133743,0.027626,0.000000,0.136063,-0.419855,0.000000
2.840000,-0.610432,-0.243169,-1.454181,0.835685,0.229876,0.049441,-0.209062,-1.191677,0.858589,3.829889,1.192352,-1.393064,6.957215,10.409001,-17.313806,-0.132313,0.023351,0.000000,0.149883,-0.427483,-0.000000
2.850000,-0.602085,-0.240929,-1.453644,0.833787,0.218021,0.057955,-0.170430,-1.179232,0.843797,3.894932,1.296802,-1.565100,6.049228,10.478171,-17.086327,-0.130746,0.019006,0.000000,0.163636,-0.433827,-0.000000
2.860000,-0.593755,-0.238808,-1.453023,0.832278,0.206295,0.066312,-0.131193,-1.165737,0.827292,3.950935,1.402030,-1.734965,5.127649,10.525316,-16.808313,-0.129041,0.014604,0.000000,0.177303,-0.438885,-0.000000
2.870000,-0.585438,-0.236803,-1.452318,0.831165,0.194709,0.074495,-0.091442,-1.151190,0.809107,3.997571,1.507445,-1.901482,4.198664,10.554605,-16.487952,-0.127200,0.010159,0.000000,0.190786,-0.442626,0.000000
2.880000,-0.577131,-0.234913,-1.451533,0.830451,0.183274,0.082488,-0.051272,-1.135588,0.789274,4.034896,1.613062,-2.064584,3.265976,10.565832,-16.125447,-0.125226,0.005684,0.000000,0.204071,-0.445065,0.000000
2.890000,-0.568828,-0.233137,-1.450669,0.830140,0.172001,0.090275,-0.010776,-1.118929,0.767828,4.062891,1.718700,-2.223851,2.333293,10.558793,-15.721000,-0.123120,0.001192,0.000000,0.217119,-0.446216,-0.000000
2.900000,-0.560527,-0.231473,-1.449729,0.830236,0.160899,0.097840,0.029955,-1.101214,0.744811,4.081574,1.824176,-2.378865,1.404321,10.533281,-15.274814,-0.120884,-0.003304,0.000000,0.229893,-0.446096,-0.000000
2.910000,-0.552222,-0.229918,-1.448713,0.830740,0.149980,0.105166,0.070823,-1.082446,0.720263,4.090811,1.929328,-2.529547,0.487571,10.488489,-14.778553,-0.118523,-0.007791,0.000000,0.242364,-0.444710,0.000000
2.920000,-0.543910,-0.228472,-1.447626,0.831653,0.139254,0.112240,0.111740,-1.062630,0.694237,4.091146,2.033910,-2.674683,-0.418645,10.424887,-14.242004,-0.116038,-0.012257,0.000000,0.254483,-0.442142,-0.000000
2.930000,-0.535588,-0.227133,-1.446469,0.832975,0.128731,0.119046,0.152616,-1.041771,0.666788,4.082484,2.137762,-2.814257,-1.311209,10.342343,-13.666414,-0.113434,-0.016690,0.000000,0.266225,-0.438408,-0.000000
2.940000,-0.527250,-0.225897,-1.445246,0.834705,0.118422,0.125571,0.193361,-1.019878,0.637972,4.064978,2.240693,-2.947885,-2.187005,10.240725,-13.053031,-0.110715,-0.021078,0.000000,0.277564,-0.433553,-0.000000
2.950000,-0.518892,-0.224763,-1.443959,0.836841,0.108337,0.131801,0.233887,-0.996960,0.607851,4.038810,2.342513,-3.075196,-3.042916,10.119902,-12.403103,-0.107884,-0.025411,0.000000,0.288473,-0.427626,-0.000000
2.960000,-0.510511,-0.223730,-1.442611,0.839382,0.098486,0.137724,0.274105,-0.973031,0.576487,4.003876,2.443089,-3.196121,-3.867740,9.978170,-11.710510,-0.104947,-0.029677,0.000000,0.298939,-0.420649,0.000000
2.970000,-0.502103,-0.222793,-1.441206,0.842322,0.088880,0.143327,0.313937,-0.948104,0.543953,3.961178,2.542082,-3.309624,-4.667433,9.817161,-10.984771,-0.101907,-0.033867,0.000000,0.308919,-0.412764,-0.000000
2.980000,-0.493664,-0.221951,-1.439746,0.845659,0.079527,0.148600,0.353303,-0.922195,0.510320,3.910618,2.639368,-3.415713,-5.439868,9.636935,-10.228034,-0.098770,-0.037973,0.000000,0.318406,-0.403993,-0.000000
2.990000,-0.485189,-0.221201,-1.438235,0.849386,0.070439,0.153530,0.392124,-0.895323,0.475664,3.852479,2.734757,-3.514089,-6.182916,9.437554,-9.442452,-0.095541,-0.041984,0.000000,0.327386,-0.394400,0.000000
3.000000,-0.476675,-0.220541,-1.436676,0.853499,0.061624,0.158110,0.430328,-0.867507,0.440064,3.787065,2.828056,-3.604473,-6.894451,9.219078,-8.630173,-0.092224,-0.045894,0.000000,0.335848,-0.384052,-0.000000
3.010000,-0.468117,-0.219968,-1.435074,0.857991,0.053092,0.162329,0.467839,-0.838767,0.403600,3.714373,2.919310,-3.686803,-7.564028,8.975621,-7.788475,-0.088825,-0.049695,0.000000,0.343809,-0.372981,-0.000000
3.020000,-0.459514,-0.219479,-1.433431,0.862854,0.044852,0.166179,0.504594,-0.809129,0.366357,3.635529,3.007773,-3.760388,-8.198855,8.713919,-6.924977,-0.085350,-0.053381,0.000000,0.351199,-0.361339,-0.000000
3.030000,-0.450859,-0.219070,-1.431751,0.868080,0.036912,0.169654,0.540529,-0.778620,0.328421,3.550515,3.093530,-3.825239,-8.797821,8.434759,-6.042427,-0.081803,-0.056947,0.000000,0.358046,-0.349155,-0.000000
3.040000,-0.442151,-0.218739,-1.430039,0.873661,0.029282,0.172746,0.575585,-0.747268,0.289882,3.459696,3.176413,-3.881182,-9.359817,8.138931,-5.143570,-0.078191,-0.060386,0.000000,0.364349,-0.336495,0.000000
3.050000,-0.433385,-0.218483,-1.428298,0.879588,0.021969,0.175449,0.609705,-0.715102,0.250828,3.363446,3.256256,-3.928065,-9.883734,7.827224,-4.231155,-0.074518,-0.063696,0.000000,0.370111,-0.323426,-0.000000
3.060000,-0.424558,-0.218299,-1.426531,0.885852,0.014983,0.177761,0.642832,-0.682153,0.211350,3.261736,3.332954,-3.965829,-10.357960,7.499224,-3.306398,-0.070790,-0.066871,0.000000,0.375341,-0.309970,0.000000
3.070000,-0.415667,-0.218183,-1.424744,0.892442,0.008329,0.179675,0.674924,-0.648454,0.171542,3.155948,3.406247,-3.994235,-10.793174,7.157068,-2.373763,-0.067013,-0.069910,0.000000,0.380034,-0.296292,-0.000000
3.080000,-0.406708,-0.218131,-1.422939,0.899347,0.002016,0.181191,0.705937,-0.614040,0.131497,3.046002,3.476052,-4.013288,-11.189552,6.801695,-1.436184,-0.063191,-0.072810,0.000000,0.384206,-0.282403,0.000000
3.090000,-0.397679,-0.218141,-1.421121,0.906557,-0.003950,0.182305,0.735832,-0.578945,0.091308,2.932286,3.542240,-4.022952,-11.547271,6.434038,-0.496594,-0.059331,-0.075569,0.000000,0.387865,-0.268361,-0.000000
3.100000,-0.388576,-0.218209,-1.419295,0.914060,-0.009561,0.183017,0.764572,-0.543207,0.051069,2.815185,3.604695,-4.023223,-11.866507,6.055035,0.442073,-0.055436,-0.078186,0.000000,0.391026,-0.254220,-0.000000
3.110000,-0.379397,-0.218331,-1.417462,0.921844,-0.014812,0.183326,0.792122,-0.506864,0.010875,2.694758,3.663355,-4.014061,-12.139222,5.664396,1.375285,-0.051512,-0.080661,0.000000,0.393704,-0.239998,0.000000
3.120000,-0.370138,-0.218504,-1.415629,0.929898,-0.019696,0.183235,0.818458,-0.469953,-0.029181,2.572157,3.718006,-3.995668,-12.374814,5.264433,2.301901,-0.047563,-0.082993,0.000000,0.395905,-0.225819,-0.000000
3.130000,-0.360798,-0.218724,-1.413799,0.938209,-0.024209,0.182744,0.843558,-0.432517,-0.069007,2.447382,3.768616,-3.968054,-12.574463,4.856231,3.219184,-0.043595,-0.085182,0.000000,0.397648,-0.211692,0.000000
3.140000,-0.351373,-0.218987,-1.411976,0.946765,-0.028345,0.181856,0.867400,-0.394595,-0.108512,2.320784,3.815107,-3.931325,-12.739354,4.440878,4.124394,-0.039612,-0.087231,0.000000,0.398950,-0.197654,0.000000
3.150000,-0.341862,-0.219289,-1.410163,0.955553,-0.032099,0.180575,0.889968,-0.356229,-0.147604,2.192706,3.857413,-3.885615,-12.870668,4.019459,5.014794,-0.035617,-0.089139,0.000000,0.399828,-0.183743,0.000000
3.160000,-0.332261,-0.219628,-1.408366,0.964560,-0.035468,0.178905,0.911248,-0.317461,-0.186193,2.063271,3.895495,-3.830929,-12.964349,3.592670,5.883651,-0.031616,-0.090908,0.000000,0.400299,-0.169972,-0.000000
3.170000,-0.322570,-0.219997,-1.406586,0.973774,-0.038448,0.176853,0.931231,-0.278333,-0.224194,1.933287,3.929271,-3.767830,-13.027460,3.162036,6.732709,-0.027613,-0.092541,0.000000,0.400379,-0.156414,0.000000
3.180000,-0.312785,-0.220395,-1.404830,0.983181,-0.041034,0.174424,0.949912,-0.238890,-0.261522,1.802818,3.958727,-3.696348,-13.061824,2.728691,7.559721,-0.023610,-0.094038,0.000000,0.400087,-0.143073,-0.000000
3.190000,-0.302906,-0.220817,-1.403099,0.992768,-0.043224,0.171625,0.967287,-0.199173,-0.298094,1.672141,3.983840,-3.616716,-13.069265,2.293768,8.362436,-0.019612,-0.095404,0.000000,0.399440,-0.129971,0.000000
3.200000,-0.292929,-0.221258,-1.401399,1.002522,-0.045017,0.168464,0.983355,-0.159227,-0.333830,1.541516,4.004601,-3.529188,-13.051607,1.858403,9.138605,-0.015622,-0.096639,0.000000,0.398456,-0.117124,0.000000
3.210000,-0.282855,-0.221716,-1.399731,1.012431,-0.046408,0.164951,0.998117,-0.119096,-0.368650,1.411114,4.020981,-3.433828,-13.008859,1.424455,9.880619,-0.011644,-0.097747,0.000000,0.397149,-0.104541,-0.000000
3.220000,-0.272680,-0.222185,-1.398101,1.022480,-0.047398,0.161095,1.011579,-0.078822,-0.402482,1.281329,4.033063,-3.331438,-12.944882,0.992243,10.592245,-0.007680,-0.098731,0.000000,0.395544,-0.092247,-0.000000
3.230000,-0.262405,-0.222662,-1.396510,1.032658,-0.047984,0.156905,1.023746,-0.038449,-0.435255,1.152281,4.040836,-3.222090,-12.861721,0.562813,11.271892,-0.003734,-0.099593,0.000000,0.393655,-0.080242,0.000000
3.240000,-0.252027,-0.223144,-1.394964,1.042951,-0.048167,0.152393,1.034628,0.001980,-0.466902,1.024152,4.044332,-3.106112,-12.761424,0.137210,11.917966,0.000192,-0.100337,0.000000,0.391498,-0.068533,-0.000000
3.250000,-0.241545,-0.223624,-1.393464,1.053346,-0.047945,0.147571,1.044233,0.042424,-0.497357,0.897102,4.043596,-2.983848,-12.646035,-0.283522,12.528875,0.004095,-0.100965,0.000000,0.389088,-0.057121,-0.000000
3.260000,-0.230959,-0.224101,-1.392013,1.063831,-0.047318,0.142450,1.052575,0.082838,-0.526556,0.771333,4.038616,-2.855430,-12.519087,-0.696682,13.097295,0.007973,-0.101480,0.000000,0.386437,-0.046013,-0.000000
3.270000,-0.220268,-0.224569,-1.390615,1.074393,-0.046288,0.137044,1.059664,0.123182,-0.554447,0.646824,4.029611,-2.721771,-12.380958,-1.103082,13.628067,0.011823,-0.101886,0.000000,0.383574,-0.035189,-0.000000
3.280000,-0.209471,-0.225026,-1.389273,1.085020,-0.044855,0.131366,1.065516,0.163416,-0.580975,0.523745,4.016579,-2.582997,-12.233511,-1.501881,14.120299,0.015643,-0.102185,0.000000,0.380507,-0.024652,0.000000
3.290000,-0.198568,-0.225465,-1.387989,1.095700,-0.043020,0.125429,1.070144,0.203501,-0.606091,0.402179,3.999602,-2.439497,-12.078612,-1.892236,14.573100,0.019432,-0.102380,0.000000,0.377249,-0.014395,-0.000000
3.300000,-0.187557,-0.225885,-1.386765,1.106419,-0.040786,0.119249,1.073565,0.243396,-0.629750,0.282191,3.978766,-2.291669,-11.918123,-2.273304,14.985580,0.023188,-0.102474,0.000000,0.373815,-0.004409,0.000000
3.310000,-0.176439,-0.226280,-1.385605,1.117167,-0.038153,0.112839,1.075795,0.283062,-0.651909,0.163991,3.954078,-2.139710,-11.757999,-2.641943,15.351472,0.026908,-0.102470,0.000000,0.370209,0.005298,0.000000
3.320000,-0.165214,-0.226646,-1.384509,1.127931,-0.035125,0.106216,1.076850,0.322465,-0.672533,0.047222,3.925860,-1.984538,-11.595513,-2.999892,15.675918,0.030592,-0.102369,0.000000,0.366464,0.014781,0.000000
3.330000,-0.153881,-0.226981,-1.383481,1.138700,-0.031705,0.099394,1.076745,0.361568,-0.691590,-0.067916,3.894118,-1.826330,-11.432028,-3.346591,15.958687,0.034237,-0.102175,0.000000,0.362581,0.024032,0.000000
3.340000,-0.142440,-0.227279,-1.382522,1.149462,-0.027895,0.092389,1.075497,0.400336,-0.709051,-0.181420,3.858967,-1.665504,-11.268908,-3.681479,16.199545,0.037843,-0.101889,0.000000,0.358572,0.033066,-0.000000
3.350000,-0.130891,-0.227537,-1.381634,1.160206,-0.023699,0.085218,1.073122,0.438736,-0.724892,-0.293300,3.820529,-1.502480,-11.107514,-4.003996,16.398260,0.041408,-0.101513,0.000000,0.354447,0.041897,-0.000000
3.360000,-0.119236,-0.227752,-1.380818,1.170921,-0.019122,0.077897,1.069639,0.476735,-0.739093,-0.403357,3.778827,-1.337496,-10.954851,-4.310966,16.549938,0.044931,-0.101051,0.000000,0.350208,0.050521,0.000000
3.370000,-0.107473,-0.227919,-1.380076,1.181595,-0.014166,0.070442,1.065060,0.514303,-0.751638,-0.512158,3.734237,-1.171413,-10.805950,-4.604764,16.659578,0.048412,-0.100503,0.000000,0.345885,0.059007,-0.000000
3.380000,-0.095604,-0.228034,-1.379410,1.192218,-0.008837,0.062870,1.059400,0.551410,-0.762518,-0.619491,3.686776,-1.004443,-10.661486,-4.885149,16.727519,0.051849,-0.099870,0.000000,0.341476,0.067347,-0.000000
3.390000,-0.083629,-0.228094,-1.378819,1.202780,-0.003140,0.055197,1.052675,0.588029,-0.771725,-0.725405,3.636580,-0.837001,-10.522130,-5.151880,16.754099,0.055241,-0.099154,0.000000,0.336990,0.075557,0.000000
3.400000,-0.071549,-0.228095,-1.378306,1.213268,0.002922,0.047441,1.044897,0.624133,-0.779258,-0.829953,3.583785,-0.669498,-10.388555,-5.404717,16.739656,0.058588,-0.098357,0.000000,0.332433,0.083656,-0.000000
3.410000,-0.059364,-0.228034,-1.377871,1.223674,0.009341,0.039617,1.036083,0.659696,-0.785115,-0.932959,3.528430,-0.502189,-10.267439,-5.640825,16.680628,0.061889,-0.097479,0.000000,0.327804,0.091637,-0.000000
3.420000,-0.047076,-0.227907,-1.377514,1.233987,0.016114,0.031744,1.026242,0.694694,-0.789304,-1.035055,3.470900,-0.335844,-10.152714,-5.862876,16.581731,0.065144,-0.096521,0.000000,0.323129,0.099574,0.000000
3.430000,-0.034685,-0.227711,-1.377236,1.244196,0.023233,0.023837,1.015385,0.729106,-0.791836,-1.136035,3.411219,-0.170684,-10.044319,-6.070946,16.443781,0.068352,-0.095483,0.000000,0.318404,0.107457,0.000000
3.440000,-0.022192,-0.227442,-1.377037,1.254291,0.030694,0.015913,1.003524,0.762912,-0.792723,-1.235962,3.349527,-0.007096,-9.942190,-6.265112,16.267594,0.071512,-0.094367,0.000000,0.313633,0.115303,-0.000000
3.450000,-0.009599,-0.227096,-1.376918,1.264263,0.038489,0.007988,0.990669,0.796091,-0.791984,-1.334899,3.285963,0.154543,-9.846265,-6.445451,16.053985,0.074624,-0.093171,0.000000,0.308820,0.123127,0.000000
3.460000,0.003093,-0.226671,-1.376877,1.274101,0.046614,0.000078,0.976832,0.828624,-0.789638,-1.432700,3.220574,0.313991,-9.761738,-6.609777,15.800512,0.077688,-0.091898,0.000000,0.303962,0.130924,-0.000000
3.470000,0.015882,-0.226163,-1.376916,1.283796,0.055060,-0.007800,0.962018,0.860497,-0.785713,-1.529917,3.153711,0.470581,-9.682647,-6.760707,15.511647,0.080703,-0.090545,0.000000,0.299079,0.138757,0.000000
3.480000,0.028768,-0.225569,-1.377033,1.293338,0.063821,-0.015631,0.946236,0.891694,-0.780237,-1.626368,3.085404,0.624110,-9.608286,-6.898597,15.188606,0.083670,-0.089113,0.000000,0.294164,0.146617,0.000000
3.490000,0.041749,-0.224885,-1.377228,1.302718,0.072891,-0.023399,0.929493,0.922201,-0.773242,-1.722097,3.015781,0.774243,-9.537947,-7.023799,14.832605,0.086587,-0.087602,0.000000,0.289219,0.154517,0.000000
3.500000,0.054822,-0.224110,-1.377501,1.311925,0.082263,-0.031091,0.911796,0.952005,-0.764765,-1.817138,2.944969,0.920656,-9.470924,-7.136669,14.444857,0.089454,-0.086011,0.000000,0.284244,0.162466,0.000000
3.510000,0.067987,-0.223239,-1.377850,1.320950,0.091929,-0.038690,0.893154,0.981096,-0.754841,-1.911380,2.873022,1.063147,-9.410132,-7.235888,14.023842,0.092271,-0.084340,0.000000,0.279235,0.170460,-0.000000
3.520000,0.081240,-0.222270,-1.378274,1.329785,0.101882,-0.046183,0.873571,1.009463,-0.743516,-2.005184,2.800214,1.201159,-9.350802,-7.323689,13.573846,0.095039,-0.082587,0.000000,0.274203,0.178542,-0.000000
3.530000,0.094582,-0.221200,-1.378773,1.338419,0.112116,-0.053556,0.853052,1.037097,-0.730834,-2.098398,2.726584,1.334532,-9.291782,-7.400628,13.096419,0.097755,-0.080752,0.000000,0.269142,0.186703,-0.000000
3.540000,0.108008,-0.220027,-1.379345,1.346843,0.122622,-0.060795,0.831605,1.063992,-0.716842,-2.191017,2.652236,1.463001,-9.231925,-7.467267,12.593109,0.100421,-0.078835,0.000000,0.264050,0.194947,-0.000000
3.550000,0.121518,-0.218747,-1.379989,1.355048,0.133393,-0.067888,0.809234,1.090140,-0.701591,-2.283029,2.577271,1.586313,-9.170081,-7.524163,12.065467,0.103036,-0.076833,0.000000,0.258923,0.203279,-0.000000
3.560000,0.135108,-0.217358,-1.380702,1.363024,0.144422,-0.074823,0.785947,1.115535,-0.685133,-2.374352,2.501749,1.704321,-9.106516,-7.570991,11.512850,0.105600,-0.074747,0.000000,0.253758,0.211693,-0.000000
3.570000,0.148777,-0.215858,-1.381485,1.370764,0.155701,-0.081587,0.761749,1.140174,-0.667523,-2.465082,2.425840,1.816598,-9.038491,-7.609303,10.939268,0.108111,-0.072575,0.000000,0.248556,0.220204,-0.000000
3.580000,0.162523,-0.214243,-1.382333,1.378256,0.167223,-0.088170,0.736648,1.164051,-0.648820,-2.555103,2.349589,1.923042,-8.964684,-7.639766,10.346541,0.110571,-0.070317,0.000000,0.243311,0.228803,0.000000
3.590000,0.176342,-0.212513,-1.383247,1.385494,0.178980,-0.094560,0.710650,1.187164,-0.629083,-2.644352,2.273069,2.023471,-8.883771,-7.663047,9.736486,0.112977,-0.067971,0.000000,0.238018,0.237486,0.000000
3.600000,0.190232,-0.210663,-1.384224,1.392466,0.190964,-0.100748,0.683763,1.209512,-0.608371,-2.732750,2.196349,2.117720,-8.794430,-7.679813,9.110921,0.115331,-0.065537,0.000000,0.232672,0.246246,0.000000
3.610000,0.204190,-0.208693,-1.385262,1.399166,0.203168,-0.106725,0.655997,1.231091,-0.586749,-2.820246,2.119493,2.205701,-8.694361,-7.690752,8.470220,0.117631,-0.063013,0.000000,0.227269,0.255079,-0.000000
3.620000,0.218214,-0.206599,-1.386358,1.405583,0.215583,-0.112480,0.627362,1.251901,-0.564279,-2.906644,2.042553,2.287150,-8.583337,-7.696507,7.817823,0.119876,-0.060399,0.000000,0.221801,0.263966,0.000000
3.630000,0.232301,-0.204380,-1.387510,1.411710,0.228203,-0.118008,0.597868,1.271942,-0.541027,-2.991873,1.965578,2.362025,-8.460156,-7.697745,7.155725,0.122066,-0.057695,0.000000,0.216263,0.272898,-0.000000
3.640000,0.246447,-0.202034,-1.388717,1.417538,0.241019,-0.123299,0.567529,1.291213,-0.517061,-3.075803,1.888611,2.430239,-8.323612,-7.695129,6.485921,0.124201,-0.054900,0.000000,0.210649,0.281861,0.000000
3.650000,0.260650,-0.199559,-1.389976,1.423058,0.254025,-0.128347,0.536357,1.309714,-0.492445,-3.158296,1.811686,2.491725,-8.172504,-7.689324,5.810405,0.126279,-0.052014,0.000000,0.204952,0.290838,0.000000
3.660000,0.274907,-0.196953,-1.391283,1.428262,0.267211,-0.133145,0.504367,1.327447,-0.467249,-3.239326,1.734870,2.546449,-8.002450,-7.681937,5.130824,0.128300,-0.049037,0.000000,0.199168,0.299821,-0.000000
3.670000,0.289215,-0.194214,-1.392638,1.433143,0.280571,-0.137690,0.471577,1.344412,-0.441539,-3.318432,1.658096,2.594351,-7.815814,-7.672575,4.449564,0.130262,-0.045968,0.000000,0.193283,0.308762,0.000000
3.680000,0.303569,-0.191341,-1.394036,1.437691,0.294097,-0.141975,0.438005,1.360609,-0.415384,-3.395585,1.581423,2.635441,-7.611780,-7.661789,3.768665,0.132165,-0.042809,0.000000,0.187293,0.317651,0.000000
3.690000,0.317967,-0.188332,-1.395476,1.441900,0.307781,-0.145996,0.403672,1.376041,-0.388853,-3.470607,1.504863,2.669732,-7.389536,-7.650126,3.090163,0.134008,-0.039559,0.000000,0.181192,0.326464,-0.000000
3.700000,0.332406,-0.185185,-1.396955,1.445762,0.321615,-0.149751,0.368600,1.390707,-0.362012,-3.543312,1.428422,2.697259,-7.148265,-7.638137,2.416097,0.135789,-0.036221,0.000000,0.174972,0.335172,0.000000
3.710000,0.346881,-0.181899,-1.398470,1.449270,0.335592,-0.153236,0.332812,1.404610,-0.334930,-3.613698,1.352170,2.718032,-6.882297,-7.628146,1.749614,0.137507,-0.032794,0.000000,0.168635,0.343769,-0.000000
3.720000,0.361390,-0.178473,-1.400019,1.452416,0.349705,-0.156449,0.296336,1.417751,-0.307674,-3.681108,1.275936,2.732230,-6.596269,-7.618710,1.091506,0.139161,-0.029281,0.000000,0.162157,0.352177,0.000000
3.730000,0.375929,-0.174905,-1.401598,1.455195,0.363945,-0.159389,0.259200,1.430129,-0.280308,-3.745556,1.199793,2.739896,-6.289962,-7.610161,0.443676,0.140749,-0.025682,0.000000,0.155542,0.360388,-0.000000
3.740000,0.390493,-0.171193,-1.403206,1.457598,0.378305,-0.162055,0.221435,1.441747,-0.252897,-3.806839,1.123729,2.741144,-5.963157,-7.602830,-0.191973,0.142271,-0.022002,0.000000,0.148782,0.368370,-0.000000
3.750000,0.405079,-0.167338,-1.404839,1.459621,0.392777,-0.164447,0.183074,1.452604,-0.225506,-3.864750,1.047731,2.736104,-5.615634,-7.597050,-0.813540,0.143725,-0.018241,0.000000,0.141874,0.376089,-0.000000
3.760000,0.419684,-0.163338,-1.406494,1.461258,0.407354,-0.166565,0.144150,1.462703,-0.198197,-3.919296,0.971870,2.724817,-5.241751,-7.595379,-1.416344,0.145108,-0.014402,0.000000,0.134821,0.383533,-0.000000
3.770000,0.434303,-0.159191,-1.408169,1.462503,0.422029,-0.168411,0.104701,1.472042,-0.171029,-3.969759,0.895916,2.707712,-4.847376,-7.595650,-2.001602,0.146420,-0.010490,0.000000,0.127601,0.390616,0.000000
3.780000,0.448933,-0.154897,-1.409861,1.463350,0.436793,-0.169986,0.064768,1.480621,-0.144062,-4.016177,0.819950,2.684848,-4.432952,-7.597921,-2.567751,0.147660,-0.006507,0.000000,0.120220,0.397328,-0.000000
3.790000,0.463569,-0.150455,-1.411568,1.463796,0.451639,-0.171293,0.024392,1.488440,-0.117351,-4.058353,0.743951,2.656425,-3.998927,-7.602253,-3.113229,0.148824,-0.002457,0.000000,0.112677,0.403634,-0.000000
3.800000,0.478207,-0.145864,-1.413286,1.463837,0.466559,-0.172334,-0.016384,1.495500,-0.090951,-4.096092,0.667898,2.622658,-3.545743,-7.608704,-3.636475,0.149913,0.001655,0.000000,0.104970,0.409499,0.000000
3.810000,0.492844,-0.141123,-1.415014,1.463468,0.481546,-0.173113,-0.057518,1.501800,-0.064916,-4.129491,0.591927,2.583600,-3.066615,-7.621303,-4.131504,0.150923,0.005825,0.000000,0.097113,0.414919,-0.000000
3.820000,0.507475,-0.136233,-1.416748,1.462686,0.496592,-0.173634,-0.098958,1.507338,-0.039295,-4.157689,0.515643,2.539913,-2.570104,-7.635655,-4.601718,0.151854,0.010047,0.000000,0.089075,0.419792,-0.000000
3.830000,0.522096,-0.131191,-1.418485,1.461488,0.511690,-0.173901,-0.140655,1.512112,-0.014133,-4.180840,0.439209,2.491652,-2.057539,-7.651331,-5.046096,0.152704,0.014316,0.000000,0.080875,0.424118,0.000000
3.840000,0.536704,-0.125999,-1.420225,1.459872,0.526832,-0.173918,-0.182557,1.516121,0.010524,-4.198791,0.362614,2.439081,-1.530252,-7.667905,-5.463618,0.153471,0.018627,0.000000,0.072516,0.427869,-0.000000
3.850000,0.551292,-0.120654,-1.421963,1.457836,0.542010,-0.173692,-0.224613,1.519364,0.034635,-4.211400,0.285850,2.382473,-0.989572,-7.684951,-5.853263,0.154154,0.022973,0.000000,0.064003,0.431015,0.000000
3.860000,0.565859,-0.115158,-1.423698,1.455379,0.557217,-0.173228,-0.266770,1.521838,0.058158,-4.218790,0.208960,2.321886,-0.430565,-7.703178,-6.208309,0.154751,0.027349,0.000000,0.055343,0.433556,-0.000000
3.870000,0.580399,-0.109510,-1.425427,1.452501,0.572444,-0.172531,-0.308970,1.523543,0.081061,-4.220258,0.131839,2.258149,0.138408,-7.720884,-6.534135,0.155260,0.031747,0.000000,0.046543,0.435410,0.000000
3.880000,0.594907,-0.103709,-1.427148,1.449200,0.587685,-0.171609,-0.351156,1.524475,0.103311,-4.215996,0.054545,2.191302,0.715249,-7.737501,-6.830419,0.155681,0.036161,0.000000,0.037612,0.436583,-0.000000
3.890000,0.609381,-0.097756,-1.428858,1.445478,0.602931,-0.170467,-0.393270,1.524633,0.124878,-4.205934,-0.022906,2.121640,1.297861,-7.752465,-7.096839,0.156012,0.040583,0.000000,0.028561,0.437060,-0.000000
3.900000,0.623816,-0.091651,-1.430556,1.441335,0.618175,-0.169113,-0.435255,1.524016,0.145735,-4.190026,-0.100496,2.049465,1.884148,-7.765209,-7.333073,0.156252,0.045007,0.000000,0.019401,0.436825,-0.000000
3.910000,0.638207,-0.085393,-1.432240,1.436773,0.633409,-0.167555,-0.477048,1.522621,0.165857,-4.167971,-0.178318,1.974830,2.465065,-7.772212,-7.532469,0.156400,0.049425,0.000000,0.010129,0.435840,0.000000
3.920000,0.652550,-0.078983,-1.433907,1.431795,0.648625,-0.165799,-0.518595,1.520449,0.185226,-4.140414,-0.256063,1.898634,3.046313,-7.776224,-7.701809,0.156454,0.053829,0.000000,0.000796,0.434167,-0.000000
3.930000,0.666841,-0.072420,-1.435555,1.426402,0.663815,-0.163853,-0.559837,1.517500,0.203825,-4.107048,-0.333832,1.820892,3.626644,-7.777042,-7.841545,0.156415,0.058213,0.000000,-0.008603,0.431769,-0.000000
3.940000,0.681076,-0.065706,-1.437183,1.420599,0.678972,-0.161725,-0.600717,1.513773,0.221639,-4.067888,-0.411592,1.741900,4.204811,-7.774461,-7.952132,0.156282,0.062569,0.000000,-0.018053,0.428643,-0.000000
3.950000,0.695252,-0.058841,-1.438789,1.414389,0.694088,-0.159423,-0.641176,1.509268,0.238659,-4.022963,-0.489309,1.661945,4.779567,-7.768278,-8.034021,0.156054,0.066889,0.000000,-0.027539,0.424790,0.000000
3.960000,0.709363,-0.051825,-1.440371,1.407777,0.709155,-0.156954,-0.681158,1.503988,0.254873,-3.972413,-0.566872,1.581076,5.352223,-7.760122,-8.081652,0.155731,0.071167,0.000000,-0.037045,0.420223,0.000000
3.970000,0.723406,-0.044658,-1.441928,1.400768,0.724165,-0.154328,-0.720605,1.497931,0.270280,-3.916053,-0.644415,1.500134,5.918662,-7.747731,-8.102228,0.155313,0.075394,0.000000,-0.046563,0.414926,-0.000000
3.980000,0.737377,-0.037342,-1.443457,1.393367,0.739111,-0.151551,-0.759460,1.491100,0.284876,-3.854066,-0.721812,1.419117,6.477324,-7.730676,-8.096937,0.154800,0.079564,0.000000,-0.056075,0.408920,-0.000000
3.990000,0.751272,-0.029876,-1.444958,1.385581,0.753985,-0.148633,-0.797668,1.483496,0.298663,-3.786538,-0.799012,1.338278,7.026648,-7.708528,-8.066968,0.154192,0.083669,0.000000,-0.065565,0.402216,0.000000
4.000000,0.765087,-0.022262,-1.446429,1.377416,0.768778,-0.145581,-0.835173,1.475121,0.311643,-3.713569,-0.875964,1.257856,7.565074,-7.680859,-8.013511,0.153489,0.087703,0.000000,-0.075020,0.394828,0.000000
4.010000,0.778819,-0.014501,-1.447869,1.368880,0.783485,-0.142403,-0.871925,1.465978,0.323820,-3.635640,-0.952525,1.177933,8.100181,-7.649377,-7.933992,0.152692,0.091658,0.000000,-0.084418,0.386810,-0.000000
4.020000,0.792464,-0.006593,-1.449277,1.359980,0.798095,-0.139107,-0.907868,1.456071,0.335205,-3.552024,-1.028834,1.099077,8.620152,-7.611255,-7.833824,0.151801,0.095528,0.000000,-0.093758,0.378097,0.000000
4.030000,0.806017,0.001461,-1.450651,1.350726,0.812603,-0.135701,-0.942949,1.445403,0.345805,-3.463296,-1.104725,1.021320,9.122307,-7.565801,-7.714655,0.150817,0.099306,0.000000,-0.103020,0.368752,-0.000000
4.040000,0.819477,0.009659,-1.451991,1.341124,0.827001,-0.132193,-0.977118,1.433978,0.355635,-3.369646,-1.180123,0.944842,9.603968,-7.512325,-7.578136,0.149741,0.102985,0.000000,-0.112189,0.358804,-0.000000
4.050000,0.832839,0.018000,-1.453295,1.331186,0.841281,-0.128591,-1.010326,1.421802,0.364707,-3.271294,-1.254943,0.869809,10.062455,-7.450136,-7.425917,0.148573,0.106561,0.000000,-0.121249,0.348283,0.000000
4.060000,0.846100,0.026484,-1.454562,1.320921,0.855435,-0.124902,-1.042521,1.408878,0.373036,-3.167805,-1.329452,0.796347,10.477960,-7.369496,-7.259065,0.147316,0.110026,0.000000,-0.130223,0.337151,-0.000000
4.070000,0.859256,0.035108,-1.455793,1.310339,0.869456,-0.121133,-1.073669,1.395216,0.380640,-3.061058,-1.402707,0.724643,10.867031,-7.279869,-7.079883,0.145969,0.113376,0.000000,-0.139011,0.325614,-0.000000
4.080000,0.872305,0.043873,-1.456985,1.299451,0.883337,-0.117291,-1.103730,1.380827,0.387535,-2.950555,-1.475021,0.654785,11.229086,-7.181674,-6.890092,0.144536,0.116607,0.000000,-0.147641,0.313627,-0.000000
4.090000,0.885244,0.052775,-1.458138,1.288268,0.897070,-0.113384,-1.132668,1.365719,0.393742,-2.836568,-1.546313,0.586871,11.563546,-7.075327,-6.691414,0.143017,0.119713,0.000000,-0.156102,0.301228,-0.000000
4.100000,0.898070,0.061813,-1.459252,1.276802,0.910649,-0.109419,-1.160451,1.349904,0.399280,-2.719378,-1.616502,0.520981,11.869827,-6.961246,-6.485570,0.141415,0.122692,0.000000,-0.164383,0.288454,0.000000
4.110000,0.910779,0.070987,-1.460326,1.265063,0.924066,-0.105401,-1.187043,1.333392,0.404169,-2.598940,-1.685604,0.457254,12.139085,-6.837552,-6.276218,0.139730,0.125539,0.000000,-0.172484,0.275309,0.000000
4.120000,0.923370,0.080294,-1.461360,1.253065,0.937314,-0.101337,-1.212421,1.316196,0.408432,-2.476321,-1.753334,0.395556,12.380014,-6.707239,-6.062905,0.137966,0.128252,0.000000,-0.180378,0.261910,-0.000000
4.130000,0.935840,0.089733,-1.462353,1.240819,0.950387,-0.097234,-1.236561,1.298330,0.412088,-2.351433,-1.819729,0.336005,12.593045,-6.571006,-5.847114,0.136123,0.130827,0.000000,-0.188067,0.248256,0.000000
4.140000,0.948186,0.099301,-1.463305,1.228338,0.963279,-0.093098,-1.259443,1.279806,0.415159,-2.224552,-1.884736,0.278617,12.778609,-6.429551,-5.630329,0.134205,0.133262,0.000000,-0.195547,0.234383,-0.000000
4.150000,0.960406,0.108998,-1.464215,1.215634,0.975981,-0.088933,-1.281047,1.260640,0.417667,-2.095951,-1.948305,0.223396,12.937136,-6.283572,-5.414033,0.132213,0.135556,0.000000,-0.202814,0.220325,-0.000000
4.160000,0.972498,0.118820,-1.465083,1.202721,0.988489,-0.084746,-1.301359,1.240847,0.419636,-1.966033,-2.010210,0.170477,13.072477,-6.138441,-5.203434,0.130150,0.137707,0.000000,-0.209845,0.206132,0.000000
4.170000,0.984460,0.128767,-1.465910,1.189612,1.000796,-0.080542,-1.320363,1.220441,0.421084,-1.834743,-2.070853,0.119484,13.181223,-5.989611,-4.995835,0.128017,0.139714,0.000000,-0.216687,0.191799,0.000000
4.180000,0.996289,0.138836,-1.466694,1.176318,1.012896,-0.076326,-1.338050,1.199435,0.422032,-1.702498,-2.129990,0.070547,13.263388,-5.837209,-4.792265,0.125817,0.141575,0.000000,-0.223315,0.177375,-0.000000
4.190000,1.007985,0.149024,-1.467436,1.162855,1.024783,-0.072103,-1.354411,1.177846,0.422501,-1.569564,-2.187586,0.023622,13.318983,-5.681360,-4.593752,0.123551,0.143289,0.000000,-0.229729,0.162892,-0.000000
4.200000,1.019546,0.159330,-1.468136,1.149235,1.036451,-0.067878,-1.369440,1.155689,0.422511,-1.436206,-2.243606,-0.021348,13.348021,-5.522190,-4.401322,0.121223,0.144857,0.000000,-0.235929,0.148382,-0.000000
4.210000,1.030970,0.169752,-1.468794,1.135471,1.047895,-0.063654,-1.383133,1.132979,0.422083,-1.302497,-2.298070,-0.064251,13.345592,-5.358540,-4.220486,0.118833,0.146279,0.000000,-0.241916,0.133857,0.000000
4.220000,1.042255,0.180288,-1.469409,1.121576,1.059109,-0.059437,-1.395491,1.109733,0.421232,-1.169161,-2.350825,-0.105583,13.317233,-5.191980,-4.047241,0.116385,0.147554,0.000000,-0.247684,0.119388,0.000000
4.230000,1.053401,0.190934,-1.469983,1.107565,1.070088,-0.055231,-1.406517,1.085968,0.419977,-1.036237,-2.401901,-0.145223,13.263558,-5.022794,-3.882064,0.113880,0.148683,0.000000,-0.253237,0.104983,0.000000
4.240000,1.064406,0.201689,-1.470514,1.093450,1.080827,-0.051039,-1.416217,1.061700,0.418333,-0.903973,-2.451273,-0.183253,13.185181,-4.851264,-3.725436,0.111321,0.149667,0.000000,-0.258575,0.090671,-0.000000
4.250000,1.075269,0.212549,-1.471003,1.079245,1.091320,-0.046866,-1.424600,1.036948,0.416317,-0.772613,-2.498919,-0.219761,13.082718,-4.677675,-3.577835,0.108710,0.150508,0.000000,-0.263699,0.076477,0.000000
4.260000,1.085991,0.223514,-1.471451,1.064963,1.101564,-0.042714,-1.431673,1.011728,0.413944,-0.642308,-2.544819,-0.254672,12.954551,-4.502338,-3.444014,0.106048,0.151207,0.000000,-0.268609,0.062419,-0.000000
4.270000,1.096569,0.234580,-1.471858,1.050616,1.111553,-0.038588,-1.437450,0.986058,0.411228,-0.513498,-2.588960,-0.288482,12.803801,-4.325506,-3.319655,0.103338,0.151764,0.000000,-0.273309,0.048539,0.000000
4.280000,1.107003,0.245744,-1.472223,1.036218,1.121284,-0.034491,-1.441948,0.959955,0.408179,-0.386304,-2.631326,-0.321096,12.631355,-4.147460,-3.204712,0.100582,0.152183,0.000000,-0.277799,0.034849,0.000000
4.290000,1.117293,0.257005,-1.472548,1.021781,1.130751,-0.030425,-1.445183,0.933437,0.404809,-0.260940,-2.671906,-0.352608,12.438100,-3.968479,-3.099141,0.097783,0.152465,0.000000,-0.282080,0.021374,-0.000000
4.300000,1.127438,0.268358,-1.472832,1.007319,1.139951,-0.026396,-1.447174,0.906523,0.401130,-0.137609,-2.710693,-0.383110,12.224926,-3.788844,-3.002899,0.094942,0.152614,0.000000,-0.286153,0.008133,-0.000000
4.310000,1.137439,0.279803,-1.473076,0.992842,1.148880,-0.022404,-1.447942,0.879229,0.397152,-0.016465,-2.747660,-0.412564,11.991705,-3.609369,-2.919300,0.092061,0.152630,0.000000,-0.290017,-0.004857,-0.000000
4.320000,1.147295,0.291335,-1.473280,0.978364,1.157534,-0.018453,-1.447511,0.851575,0.392881,0.102211,-2.782856,-0.441376,11.740464,-3.429735,-2.844528,0.089142,0.152517,0.000000,-0.293681,-0.017571,-0.000000
4.330000,1.157006,0.302953,-1.473445,0.963896,1.165911,-0.014547,-1.445906,0.823578,0.388326,0.218288,-2.816255,-0.469482,11.472216,-3.250159,-2.778128,0.086188,0.152278,0.000000,-0.297141,-0.029995,-0.000000
4.340000,1.166573,0.314652,-1.473571,0.949449,1.174005,-0.010688,-1.443154,0.795256,0.383494,0.331602,-2.847860,-0.496965,11.187973,-3.070854,-2.719643,0.083200,0.151916,0.000000,-0.300400,-0.042112,-0.000000
4.350000,1.175995,0.326432,-1.473659,0.935036,1.181815,-0.006878,-1.439284,0.766627,0.378389,0.441997,-2.877674,-0.523900,10.888748,-2.892036,-2.668618,0.080180,0.151434,0.000000,-0.303459,-0.053907,0.000000
4.360000,1.185274,0.338288,-1.473709,0.920667,1.189337,-0.003121,-1.434325,0.737709,0.373018,0.549342,-2.905677,-0.550279,10.575248,-2.714580,-2.626642,0.077131,0.150835,0.000000,-0.306314,-0.065365,-0.000000
4.370000,1.194409,0.350218,-1.473721,0.906353,1.196568,0.000581,-1.428308,0.708519,0.367385,0.653473,-2.931939,-0.576362,10.248827,-2.537961,-2.590963,0.074055,0.150124,0.000000,-0.308976,-0.076473,0.000000
4.380000,1.203401,0.362218,-1.473697,0.892105,1.203506,0.004226,-1.421266,0.679076,0.361492,0.754279,-2.956439,-0.602117,9.910536,-2.362312,-2.560874,0.070952,0.149303,0.000000,-0.311440,-0.087218,-0.000000
4.390000,1.212251,0.374287,-1.473637,0.877931,1.210149,0.007810,-1.413234,0.649396,0.355343,0.851647,-2.979189,-0.627596,9.561423,-2.187769,-2.535669,0.067826,0.148376,0.000000,-0.313709,-0.097589,0.000000
4.400000,1.220960,0.386420,-1.473541,0.863843,1.216493,0.011332,-1.404245,0.619498,0.348941,0.945475,-3.000199,-0.652845,9.202540,-2.014465,-2.514642,0.064679,0.147348,0.000000,-0.315782,-0.107575,0.000000
4.410000,1.229529,0.398616,-1.473411,0.849849,1.222538,0.014788,-1.394336,0.589398,0.342287,1.035658,-3.019456,-0.677877,8.835209,-1.843211,-2.497684,0.061511,0.146222,0.000000,-0.317658,-0.117165,-0.000000
4.420000,1.237957,0.410870,-1.473246,0.835959,1.228281,0.018177,-1.383544,0.559115,0.335384,1.122141,-3.037038,-0.702781,8.460172,-1.673383,-2.483416,0.058326,0.145002,0.000000,-0.319344,-0.126354,0.000000
4.430000,1.246248,0.423180,-1.473047,0.822181,1.233720,0.021495,-1.371906,0.528663,0.328232,1.204839,-3.052929,-0.727552,8.078446,-1.505032,-2.471061,0.055125,0.143692,0.000000,-0.320837,-0.135132,-0.000000
4.440000,1.254402,0.435543,-1.472816,0.808524,1.238853,0.024741,-1.359460,0.498062,0.320833,1.283691,-3.067144,-0.752206,7.691046,-1.338211,-2.459837,0.051910,0.142296,0.000000,-0.322138,-0.143494,-0.000000
4.450000,1.262419,0.447956,-1.472553,0.794995,1.243680,0.027911,-1.346245,0.467326,0.313188,1.358645,-3.079698,-0.776750,7.298989,-1.172970,-2.448965,0.048683,0.140819,0.000000,-0.323248,-0.151431,-0.000000
4.460000,1.270302,0.460416,-1.472258,0.781601,1.248200,0.031004,-1.332301,0.436473,0.305298,1.429630,-3.090584,-0.801211,6.904008,-1.009972,-2.436972,0.045446,0.139265,0.000000,-0.324164,-0.158939,0.000000
4.470000,1.278051,0.472919,-1.471933,0.768351,1.252410,0.034016,-1.317666,0.405520,0.297165,1.496684,-3.099876,-0.825516,6.506314,-0.848583,-2.423857,0.042200,0.137639,0.000000,-0.324894,-0.166017,0.000000
4.480000,1.285669,0.485463,-1.471578,0.755250,1.256310,0.036946,-1.302380,0.374481,0.288788,1.559751,-3.107561,-0.849682,6.106835,-0.688781,-2.408924,0.038949,0.135944,0.000000,-0.325434,-0.172661,0.000000
4.490000,1.293157,0.498044,-1.471194,0.742305,1.259899,0.039791,-1.286484,0.343374,0.280171,1.618818,-3.113657,-0.873686,5.706500,-0.530544,-2.391479,0.035692,0.134184,0.000000,-0.325786,-0.178869,0.000000
4.500000,1.300516,0.510660,-1.470783,0.729523,1.263177,0.042549,-1.270017,0.312213,0.271315,1.673881,-3.118177,-0.897501,5.306235,-0.373848,-2.370828,0.032434,0.132365,0.000000,-0.325950,-0.184639,-0.000000
4.510000,1.307748,0.523307,-1.470344,0.716907,1.266143,0.045217,-1.253020,0.281016,0.262222,1.724904,-3.121122,-0.921155,4.908038,-0.219083,-2.344636,0.029174,0.130491,0.000000,-0.325926,-0.189968,0.000000
4.520000,1.314855,0.535982,-1.469879,0.704464,1.268797,0.047792,-1.235533,0.249796,0.252893,1.772000,-3.122545,-0.944452,4.511638,-0.065764,-2.314048,0.025916,0.128566,0.000000,-0.325718,-0.194864,0.000000
4.530000,1.321838,0.548682,-1.469388,0.692198,1.271139,0.050274,-1.217594,0.218570,0.243334,1.815145,-3.122442,-0.967420,4.117833,0.086184,-2.278571,0.022660,0.126594,0.000000,-0.325325,-0.199326,-0.000000
4.540000,1.328699,0.561403,-1.468873,0.680113,1.273169,0.052658,-1.199243,0.187352,0.233546,1.854368,-3.120826,-0.990006,3.727420,0.236832,-2.237711,0.019410,0.124580,0.000000,-0.324750,-0.203356,-0.000000
4.550000,1.335441,0.574144,-1.468335,0.668214,1.274886,0.054944,-1.180519,0.156158,0.223535,1.889707,-3.117710,-1.012154,3.341197,0.386255,-2.190974,0.016166,0.122527,0.000000,-0.323992,-0.206958,0.000000
4.560000,1.342064,0.586900,-1.467775,0.656504,1.276292,0.057128,-1.161462,0.125003,0.213304,1.921155,-3.113098,-1.033890,2.961318,0.534355,-2.135690,0.012931,0.120441,0.000000,-0.323053,-0.210132,0.000000
4.570000,1.348571,0.599669,-1.467193,0.644986,1.277386,0.059209,-1.142109,0.093901,0.202859,1.948892,-3.107018,-1.054943,2.587057,0.681397,-2.073808,0.009705,0.118326,0.000000,-0.321936,-0.212894,0.000000
4.580000,1.354965,0.612447,-1.466591,0.633663,1.278170,0.061185,-1.122496,0.062868,0.192207,1.972917,-3.099473,-1.075343,2.219047,0.827475,-2.005099,0.006492,0.116185,0.000000,-0.320641,-0.215245,0.000000
4.590000,1.361245,0.625231,-1.465970,0.622537,1.278644,0.063053,-1.102662,0.031917,0.181355,1.993296,-3.090472,-1.095022,1.857918,0.972684,-1.929337,0.003293,0.114022,0.000000,-0.319171,-0.217191,0.000000
4.600000,1.367416,0.638019,-1.465330,0.611610,1.278809,0.064811,-1.082642,0.001063,0.170309,2.010100,-3.080022,-1.113906,1.504304,1.117117,-1.846293,0.000110,0.111842,0.000000,-0.317528,-0.218742,-0.000000
4.610000,1.373478,0.650806,-1.464674,0.600884,1.278666,0.066458,-1.062473,-0.029679,0.159078,2.023347,-3.068135,-1.132013,1.160389,1.260954,-1.753460,-0.003057,0.109649,0.000000,-0.315714,-0.219900,0.000000
4.620000,1.379434,0.663591,-1.464002,0.590361,1.278216,0.067992,-1.042187,-0.060295,0.147672,2.033267,-3.054809,-1.149052,0.825060,1.404194,-1.653169,-0.006204,0.107445,0.000000,-0.313731,-0.220688,-0.000000
4.630000,1.385286,0.676370,-1.463314,0.580041,1.277460,0.069411,-1.021818,-0.090770,0.136101,2.039879,-3.040053,-1.165051,0.498759,1.546920,-1.545473,-0.009331,0.105236,0.000000,-0.311582,-0.221108,0.000000
4.640000,1.391036,0.689139,-1.462614,0.569925,1.276401,0.070714,-1.001400,-0.121091,0.124375,2.043274,-3.023872,-1.179937,0.181927,1.689216,-1.430423,-0.012435,0.103024,0.000000,-0.309268,-0.221173,-0.000000
4.650000,1.396685,0.701897,-1.461901,0.560013,1.275039,0.071898,-0.980963,-0.151243,0.112506,2.043550,-3.006270,-1.193636,-0.124996,1.831165,-1.308070,-0.015516,0.100813,0.000000,-0.306794,-0.220894,-0.000000
4.660000,1.402237,0.714639,-1.461176,0.550306,1.273376,0.072963,-0.960540,-0.181212,0.100506,2.040744,-2.987262,-1.206154,-0.419933,1.973163,-1.176447,-0.018571,0.098607,0.000000,-0.304162,-0.220275,0.000000
4.670000,1.407692,0.727363,-1.460442,0.540802,1.271415,0.073908,-0.940158,-0.210984,0.088387,2.035114,-2.966821,-1.217231,-0.704277,2.114943,-1.037871,-0.021598,0.096408,0.000000,-0.301374,-0.219345,0.000000
4.680000,1.413053,0.740066,-1.459698,0.531502,1.269158,0.074731,-0.919847,-0.240544,0.076166,2.026695,-2.944964,-1.226889,-0.977789,2.256551,-0.892644,-0.024598,0.094220,0.000000,-0.298433,-0.218108,-0.000000
4.690000,1.418323,0.752745,-1.458948,0.522405,1.266605,0.075431,-0.899633,-0.269878,0.063855,2.015595,-2.921691,-1.235063,-1.240227,2.398034,-0.741062,-0.027567,0.092046,0.000000,-0.295343,-0.216578,0.000000
4.700000,1.423502,0.765397,-1.458190,0.513509,1.263761,0.076008,-0.879543,-0.298973,0.051470,2.001928,-2.897003,-1.241691,-1.491349,2.539437,-0.583426,-0.030504,0.089888,0.000000,-0.292107,-0.214769,-0.000000
4.710000,1.428594,0.778020,-1.457428,0.504813,1.260627,0.076460,-0.859603,-0.327814,0.039026,1.985744,-2.870920,-1.246772,-1.729341,2.681268,-0.418532,-0.033408,0.087749,0.000000,-0.288730,-0.212689,0.000000
4.720000,1.433599,0.790609,-1.456661,0.496316,1.257205,0.076788,-0.839836,-0.356387,0.026540,1.967309,-2.843399,-1.250111,-1.955728,2.823054,-0.248366,-0.036278,0.085633,0.000000,-0.285211,-0.210364,0.000000
4.730000,1.438521,0.803163,-1.455892,0.488016,1.253500,0.076991,-0.820265,-0.384677,0.014029,1.946669,-2.814459,-1.251723,-2.170463,2.964783,-0.073410,-0.039112,0.083540,0.000000,-0.281556,-0.207804,0.000000
4.740000,1.443360,0.815678,-1.455122,0.479910,1.249513,0.077069,-0.800910,-0.412671,0.001511,1.923939,-2.784103,-1.251564,-2.373498,3.106445,0.105853,-0.041909,0.081474,0.000000,-0.277768,-0.205021,0.000000
4.750000,1.448120,0.828152,-1.454351,0.471997,1.245247,0.077021,-0.781792,-0.440354,-0.010996,1.899238,-2.752331,-1.249594,-2.564784,3.248029,0.288939,-0.044667,0.079437,0.000000,-0.273851,-0.202031,0.000000
4.760000,1.452801,0.840582,-1.453582,0.464274,1.240707,0.076849,-0.762932,-0.467713,-0.023475,1.872628,-2.719163,-1.245808,-2.742900,3.390042,0.476217,-0.047385,0.077430,0.000000,-0.269810,-0.198842,-0.000000
4.770000,1.457406,0.852965,-1.452815,0.456738,1.235894,0.076552,-0.744346,-0.494733,-0.035906,1.844357,-2.684554,-1.240098,-2.909338,3.531890,0.666248,-0.050063,0.075456,0.000000,-0.265645,-0.195480,-0.000000
4.780000,1.461936,0.865299,-1.452051,0.449386,1.230813,0.076131,-0.726050,-0.521399,-0.048271,1.814480,-2.648526,-1.232476,-3.064220,3.673501,0.858446,-0.052698,0.073516,0.000000,-0.261360,-0.191955,-0.000000
4.790000,1.466394,0.877581,-1.451293,0.442216,1.225468,0.075587,-0.708061,-0.547699,-0.060549,1.783111,-2.611085,-1.222924,-3.207665,3.814799,1.052222,-0.055290,0.071612,0.000000,-0.256959,-0.188279,0.000000
4.800000,1.470781,0.889808,-1.450540,0.435224,1.219861,0.074920,-0.690392,-0.573616,-0.072723,1.750364,-2.572232,-1.211428,-3.339794,3.955710,1.246991,-0.057837,0.069745,0.000000,-0.252446,-0.184466,-0.000000
4.810000,1.475099,0.901977,-1.449795,0.428407,1.213997,0.074133,-0.673058,-0.599139,-0.084771,1.716311,-2.531991,-1.197990,-3.459671,4.096631,1.442347,-0.060338,0.067917,0.000000,-0.247826,-0.180526,-0.000000
4.820000,1.479350,0.914087,-1.449058,0.421761,1.207879,0.073225,-0.656070,-0.624252,-0.096676,1.681160,-2.490322,-1.182590,-3.568600,4.236959,1.637499,-0.062793,0.066128,0.000000,-0.243098,-0.176481,0.000000
4.830000,1.483535,0.926134,-1.448331,0.415284,1.201513,0.072200,-0.639439,-0.648941,-0.108417,1.644975,-2.447254,-1.165243,-3.666831,4.376561,1.831836,-0.065200,0.064381,0.000000,-0.238268,-0.172340,-0.000000
4.840000,1.487656,0.938116,-1.447614,0.408971,1.194902,0.071058,-0.623174,-0.673192,-0.119974,1.607859,-2.402794,-1.145958,-3.754611,4.515304,2.024748,-0.067558,0.062675,0.000000,-0.233338,-0.168114,0.000000
4.850000,1.491715,0.950031,-1.446910,0.402819,1.188051,0.069801,-0.607284,-0.696992,-0.131329,1.569916,-2.356951,-1.124754,-3.832191,4.653056,2.215626,-0.069866,0.061011,0.000000,-0.228311,-0.163816,-0.000000
4.860000,1.495713,0.961876,-1.446219,0.396824,1.180964,0.068432,-0.591778,-0.720327,-0.142463,1.531222,-2.309750,-1.101639,-3.899156,4.790025,2.403453,-0.072124,0.059391,0.000000,-0.223194,-0.159454,-0.000000
4.870000,1.499652,0.973650,-1.445542,0.390982,1.173646,0.066952,-0.576662,-0.743182,-0.153356,1.491936,-2.261170,-1.076678,-3.956499,4.925697,2.588076,-0.074330,0.057814,0.000000,-0.217984,-0.155047,0.000000
4.880000,1.503533,0.985348,-1.444880,0.385290,1.166102,0.065365,-0.561941,-0.765545,-0.163990,1.452123,-2.211241,-1.049890,-4.004551,5.059898,2.768934,-0.076483,0.056281,0.000000,-0.212686,-0.150601,-0.000000
4.890000,1.507358,0.996971,-1.444235,0.379742,1.158336,0.063674,-0.547621,-0.787403,-0.174348,1.411875,-2.159978,-1.021314,-4.043641,5.192455,2.945468,-0.078583,0.054793,0.000000,-0.207304,-0.146126,0.000000
4.900000,1.511128,1.008514,-1.443607,0.374336,1.150355,0.061879,-0.533705,-0.808741,-0.184411,1.371279,-2.107398,-0.990996,-4.074100,5.323193,3.117119,-0.080629,0.053350,0.000000,-0.201841,-0.141633,-0.000000
4.910000,1.514845,1.019977,-1.442997,0.369067,1.142163,0.059986,-0.520196,-0.829546,-0.194162,1.330410,-2.053527,-0.958955,-4.095993,5.452096,3.282464,-0.082620,0.051951,0.000000,-0.196299,-0.137129,0.000000
4.920000,1.518510,1.031357,-1.442407,0.363931,1.133766,0.057997,-0.507097,-0.849807,-0.203584,1.289374,-1.998370,-0.925328,-4.109948,5.578813,3.441911,-0.084555,0.050598,0.000000,-0.190680,-0.132625,-0.000000
4.930000,1.522124,1.042652,-1.441838,0.358924,1.125169,0.055916,-0.494409,-0.869510,-0.212663,1.248236,-1.941958,-0.890138,-4.116327,5.703151,3.595004,-0.086433,0.049289,0.000000,-0.184987,-0.128129,-0.000000
4.940000,1.525689,1.053860,-1.441289,0.354041,1.116378,0.053745,-0.482133,-0.888642,-0.221382,1.207071,-1.884316,-0.853451,-4.115491,5.824918,3.741290,-0.088254,0.048025,0.000000,-0.179222,-0.123649,-0.000000
4.950000,1.529205,1.064979,-1.440763,0.349279,1.107398,0.051489,-0.470268,-0.907192,-0.229727,1.165949,-1.825469,-0.815337,-4.107805,5.943920,3.880312,-0.090017,0.046806,0.000000,-0.173389,-0.119190,-0.000000
4.960000,1.532675,1.076007,-1.440260,0.344634,1.098236,0.049152,-0.458813,-0.925147,-0.237684,1.124941,-1.765445,-0.775825,-4.093730,6.059908,4.010458,-0.091722,0.045632,0.000000,-0.167489,-0.114761,-0.000000
4.970000,1.536099,1.086943,-1.439780,0.340102,1.088897,0.046737,-0.447768,-0.942497,-0.245240,1.084099,-1.704279,-0.735103,-4.073517,6.172752,4.132574,-0.093367,0.044501,0.000000,-0.161524,-0.110367,0.000000
4.980000,1.539477,1.097785,-1.439325,0.335678,1.079388,0.044249,-0.437130,-0.959229,-0.252382,1.043490,-1.642001,-0.693201,-4.047515,6.282266,4.246348,-0.094952,0.043415,0.000000,-0.155498,-0.106014,-0.000000
4.990000,1.542812,1.108530,-1.438896,0.331358,1.069715,0.041691,-0.426897,-0.975333,-0.259100,1.003167,-1.578645,-0.650205,-4.016076,6.388262,4.351466,-0.096477,0.042371,0.000000,-0.149411,-0.101707,-0.000000
5.000000,1.546105,1.119178,-1.438492,0.327138,1.059884,0.039068,-0.417066,-0.990799,-0.265383,0.963185,-1.514248,-0.606202,-3.979549,6.490556,4.447616,-0.097940,0.041371,0.000000,-0.143267,-0.097451,-0.000000
5.010000,1.549356,1.129727,-1.438114,0.323015,1.049901,0.036385,-0.407632,-1.005615,-0.271220,0.923606,-1.448839,-0.561232,-3.938647,6.588742,4.533189,-0.099342,0.040413,0.000000,-0.137067,-0.093252,0.000000
5.020000,1.552565,1.140176,-1.437764,0.318984,1.039773,0.033645,-0.398592,-1.019772,-0.276605,0.884443,-1.382477,-0.515511,-3.893313,6.682880,4.609327,-0.100681,0.039496,0.000000,-0.130813,-0.089111,-0.000000
5.030000,1.555736,1.150522,-1.437442,0.315042,1.029508,0.030854,-0.389942,-1.033261,-0.281528,0.845754,-1.315195,-0.469077,-3.843854,6.772808,4.675877,-0.101958,0.038621,0.000000,-0.124508,-0.085033,-0.000000
5.040000,1.558867,1.160766,-1.437147,0.311184,1.019111,0.028016,-0.381676,-1.046073,-0.285984,0.807579,-1.247035,-0.422026,-3.790575,6.858369,4.732684,-0.103171,0.037787,0.000000,-0.118154,-0.081021,-0.000000
5.050000,1.561959,1.170904,-1.436882,0.307407,1.008589,0.025136,-0.373788,-1.058199,-0.289967,0.769954,-1.178043,-0.374457,-3.733783,6.939401,4.779594,-0.104321,0.036992,0.000000,-0.111752,-0.077078,-0.000000
5.060000,1.565015,1.180937,-1.436645,0.303707,0.997949,0.022218,-0.366274,-1.069631,-0.293471,0.732934,-1.108249,-0.326416,-3.674297,7.015399,4.815152,-0.105406,0.036236,0.000000,-0.105304,-0.073209,0.000000
5.070000,1.568034,1.190863,-1.436437,0.300081,0.987198,0.019268,-0.359128,-1.080362,-0.296494,0.696501,-1.037735,-0.278129,-3.611848,7.086592,4.840665,-0.106427,0.035519,0.000000,-0.098813,-0.069411,0.000000
5.080000,1.571017,1.200681,-1.436259,0.296524,0.976344,0.016290,-0.352342,-1.090384,-0.299033,0.660706,-0.966534,-0.229637,-3.546676,7.152863,4.856137,-0.107382,0.034840,0.000000,-0.092280,-0.065689,-0.000000
5.090000,1.573965,1.210389,-1.436112,0.293033,0.965393,0.013289,-0.345911,-1.099690,-0.301087,0.625576,-0.894695,-0.181040,-3.479027,7.214094,4.861575,-0.108272,0.034198,0.000000,-0.085708,-0.062044,0.000000
5.100000,1.576878,1.219988,-1.435994,0.289604,0.954353,0.010270,-0.339828,-1.108276,-0.302654,0.591133,-0.822269,-0.132438,-3.409143,7.270168,4.856985,-0.109096,0.033592,0.000000,-0.079098,-0.058479,0.000000
5.110000,1.579757,1.229476,-1.435906,0.286235,0.943230,0.007238,-0.334086,-1.116134,-0.303735,0.557421,-0.749293,-0.083886,-3.337821,7.320571,4.841166,-0.109854,0.033021,0.000000,-0.072452,-0.054995,-0.000000
5.120000,1.582603,1.238852,-1.435849,0.282921,0.932032,0.004197,-0.328678,-1.123260,-0.304333,0.524407,-0.675858,-0.035594,-3.264683,7.365631,4.815477,-0.110545,0.032485,0.000000,-0.065773,-0.051591,-0.000000
5.130000,1.585415,1.248116,-1.435822,0.279660,0.920767,0.001153,-0.323595,-1.129650,-0.304448,0.492133,-0.601999,0.012391,-3.189903,7.405280,4.780069,-0.111169,0.031982,0.000000,-0.059062,-0.048268,0.000000
5.140000,1.588196,1.257268,-1.435826,0.276448,0.909442,-0.001891,-0.318832,-1.135299,-0.304086,0.460614,-0.527771,0.059975,-3.113657,7.439448,4.735098,-0.111726,0.031513,0.000000,-0.052323,-0.045027,0.000000
5.150000,1.590945,1.266305,-1.435860,0.273283,0.898064,-0.004928,-0.314381,-1.140204,-0.303250,0.429864,-0.453228,0.107062,-3.036119,7.468067,4.680714,-0.112216,0.031076,0.000000,-0.045556,-0.041870,0.000000
5.160000,1.593662,1.275229,-1.435924,0.270160,0.886640,-0.007954,-0.310232,-1.144362,-0.301946,0.399915,-0.378415,0.153599,-2.957947,7.490734,4.616053,-0.112637,0.030670,0.000000,-0.038763,-0.038799,0.000000
5.170000,1.596348,1.284038,-1.436019,0.267077,0.875179,-0.010965,-0.306380,-1.147772,-0.300181,0.370730,-0.303418,0.199399,-2.878775,7.507756,4.542411,-0.112991,0.030295,0.000000,-0.031948,-0.035808,0.000000
5.180000,1.599003,1.292732,-1.436144,0.264031,0.863687,-0.013956,-0.302815,-1.150430,-0.297961,0.342342,-0.228278,0.244418,-2.798719,7.519105,4.460065,-0.113276,0.029949,0.000000,-0.025113,-0.032902,0.000000
5.190000,1.601629,1.301311,-1.436298,0.261020,0.852173,-0.016923,-0.299530,-1.152337,-0.295295,0.314758,-0.153054,0.288572,-2.717895,7.524753,4.369293,-0.113493,0.029632,0.000000,-0.018259,-0.030080,0.000000
5.200000,1.604224,1.309776,-1.436482,0.258040,0.840643,-0.019861,-0.296517,-1.153491,-0.292193,0.287986,-0.077803,0.331777,-2.636421,7.524672,4.270372,-0.113641,0.029343,0.000000,-0.011390,-0.027342,0.000000
5.210000,1.606790,1.318124,-1.436695,0.255088,0.829105,-0.022765,-0.293768,-1.153893,-0.288663,0.262046,-0.002571,0.373984,-2.554761,7.518613,4.162796,-0.113721,0.029082,0.000000,-0.004508,-0.024690,0.000000
5.220000,1.609326,1.326358,-1.436937,0.252163,0.817568,-0.025632,-0.291273,-1.153543,-0.284717,0.236908,0.072560,0.415043,-2.472640,7.506798,4.047722,-0.113731,0.028846,0.000000,0.002384,-0.022120,-0.000000
5.230000,1.611833,1.334476,-1.437208,0.249262,0.806037,-0.028458,-0.289027,-1.152442,-0.280366,0.212594,0.147545,0.454915,-2.390131,7.489225,3.925524,-0.113673,0.028636,0.000000,0.009284,-0.019634,0.000000
5.240000,1.614311,1.342478,-1.437506,0.246382,0.794521,-0.031238,-0.287019,-1.150593,-0.275623,0.189107,0.222326,0.493531,-2.307307,7.465893,3.796575,-0.113546,0.028451,0.000000,0.016188,-0.017232,0.000000
5.250000,1.616761,1.350366,-1.437832,0.243521,0.783028,-0.033969,-0.285242,-1.147997,-0.270500,0.166449,0.296844,0.530825,-2.224242,7.436803,3.661250,-0.113349,0.028289,0.000000,0.023093,-0.014914,0.000000
5.260000,1.619182,1.358139,-1.438185,0.240677,0.771564,-0.036647,-0.283687,-1.144657,-0.265010,0.144630,0.371045,0.566756,-2.141191,7.401900,3.519405,-0.113084,0.028150,0.000000,0.029997,-0.012680,-0.000000
5.270000,1.621574,1.365798,-1.438565,0.237847,0.760137,-0.039268,-0.282346,-1.140577,-0.259169,0.123633,0.444865,0.601218,-2.058024,7.361244,3.371994,-0.112749,0.028033,0.000000,0.036896,-0.010529,0.000000
5.280000,1.623939,1.373342,-1.438971,0.235029,0.748755,-0.041829,-0.281212,-1.135761,-0.252991,0.103469,0.518250,0.634179,-1.974791,7.314840,3.219453,-0.112346,0.027938,0.000000,0.043786,-0.008461,0.000000
5.290000,1.626275,1.380773,-1.439401,0.232222,0.737424,-0.044327,-0.280274,-1.130214,-0.246491,0.084138,0.591143,0.665591,-1.891546,7.262693,3.062220,-0.111874,0.027863,0.000000,0.050664,-0.006476,0.000000
5.300000,1.628583,1.388091,-1.439857,0.229423,0.726153,-0.046758,-0.279526,-1.123940,-0.239685,0.065638,0.663485,0.695409,-1.808338,7.204810,2.900730,-0.111333,0.027807,0.000000,0.057526,-0.004575,0.000000
5.310000,1.630863,1.395296,-1.440336,0.226631,0.714948,-0.049120,-0.278959,-1.116946,-0.232588,0.047971,0.735215,0.723602,-1.725238,7.141330,2.735195,-0.110723,0.027770,0.000000,0.064367,-0.002756,-0.000000
5.320000,1.633116,1.402390,-1.440839,0.223843,0.703816,-0.051409,-0.278564,-1.109238,-0.225218,0.031134,0.806287,0.750112,-1.642277,7.072110,2.566306,-0.110046,0.027751,0.000000,0.071184,-0.001021,-0.000000
5.330000,1.635340,1.409373,-1.441364,0.221059,0.692766,-0.053623,-0.278333,-1.100823,-0.217592,0.015125,0.876638,0.774918,-1.559503,6.997136,2.394526,-0.109300,0.027750,0.000000,0.077972,0.000632,-0.000000
5.340000,1.637537,1.416246,-1.441911,0.218276,0.681802,-0.055760,-0.278259,-1.091708,-0.209726,-0.000057,0.946210,0.797994,-1.476964,6.916400,2.220320,-0.108486,0.027764,0.000000,0.084726,0.002203,-0.000000
5.350000,1.639706,1.423009,-1.442479,0.215493,0.670934,-0.057817,-0.278332,-1.081901,-0.201638,-0.014415,1.014946,0.819318,-1.394710,6.829890,2.044153,-0.107605,0.027794,0.000000,0.091441,0.003691,0.000000
5.360000,1.641847,1.429665,-1.443067,0.212709,0.660167,-0.059792,-0.278544,-1.071412,-0.193345,-0.027957,1.082776,0.838870,-1.312681,6.737905,1.866554,-0.106658,0.027838,0.000000,0.098112,0.005097,-0.000000
5.370000,1.643960,1.436213,-1.443675,0.209922,0.649508,-0.061683,-0.278888,-1.060249,-0.184866,-0.040675,1.149671,0.856643,-1.231049,6.640086,1.687914,-0.105643,0.027896,0.000000,0.104735,0.006420,0.000000
5.380000,1.646045,1.442655,-1.444301,0.207131,0.638964,-0.063489,-0.279355,-1.048422,-0.176218,-0.052579,1.215558,0.872626,-1.149874,6.536385,1.508691,-0.104563,0.027967,0.000000,0.111302,0.007662,-0.000000
5.390000,1.648102,1.448992,-1.444944,0.204334,0.628541,-0.065207,-0.279937,-1.035941,-0.167420,-0.063674,1.280379,0.886816,-1.069219,6.426753,1.329339,-0.103417,0.028050,0.000000,0.117809,0.008821,-0.000000
5.400000,1.650132,1.455226,-1.445605,0.201532,0.618247,-0.066837,-0.280626,-1.022818,-0.158488,-0.073965,1.344074,0.899214,-0.989146,6.311142,1.150317,-0.102207,0.028144,0.000000,0.124249,0.009900,0.000000
5.410000,1.652133,1.461358,-1.446281,0.198721,0.608087,-0.068377,-0.281414,-1.009064,-0.149441,-0.083466,1.406565,0.909812,-0.909536,6.189939,0.972418,-0.100933,0.028248,0.000000,0.130613,0.010897,0.000000
5.420000,1.654106,1.467389,-1.446972,0.195903,0.598068,-0.069825,-0.282292,-0.994691,-0.140298,-0.092167,1.467832,0.918651,-0.830654,6.062606,0.795720,-0.099595,0.028363,0.000000,0.136898,0.011814,0.000000
5.430000,1.656051,1.473320,-1.447677,0.193075,0.588195,-0.071182,-0.283254,-0.979712,-0.131074,-0.100082,1.527796,0.925732,-0.752586,5.929040,0.620638,-0.098195,0.028486,0.000000,0.143096,0.012649,-0.000000
5.440000,1.657968,1.479153,-1.448395,0.190238,0.578476,-0.072447,-0.284292,-0.964139,-0.121789,-0.107221,1.586392,0.931071,-0.675415,5.789141,0.447587,-0.096734,0.028617,0.000000,0.149199,0.013405,-0.000000
5.450000,1.659856,1.484890,-1.449126,0.187389,0.568915,-0.073618,-0.285396,-0.947989,-0.112458,-0.113594,1.643557,0.934692,-0.599227,5.642805,0.276981,-0.095211,0.028755,0.000000,0.155199,0.014082,0.000000
5.460000,1.661715,1.490532,-1.449867,0.184530,0.559518,-0.074696,-0.286561,-0.931274,-0.103101,-0.119217,1.699207,0.936597,-0.523912,5.490428,0.109810,-0.093630,0.028899,0.000000,0.161086,0.014680,0.000000
5.470000,1.663546,1.496081,-1.450619,0.181658,0.550291,-0.075680,-0.287778,-0.914010,-0.093732,-0.124085,1.753321,0.936873,-0.449772,5.331350,-0.054155,-0.091990,0.029049,0.000000,0.166856,0.015200,-0.000000
5.480000,1.665348,1.501538,-1.451381,0.178774,0.541239,-0.076570,-0.289040,-0.896213,-0.084369,-0.128217,1.805811,0.935526,-0.376916,5.165408,-0.214568,-0.090293,0.029204,0.000000,0.172498,0.015643,0.000000
5.490000,1.667122,1.506906,-1.452150,0.175877,0.532368,-0.077367,-0.290340,-0.877899,-0.075027,-0.131627,1.856606,0.932594,-0.305450,4.992440,-0.371086,-0.088541,0.029363,0.000000,0.178003,0.016010,0.000000
5.500000,1.668866,1.512186,-1.452928,0.172967,0.523683,-0.078071,-0.291670,-0.859086,-0.065722,-0.134331,1.905636,0.928119,-0.235485,4.812282,-0.523363,-0.086734,0.029525,0.000000,0.183362,0.016302,-0.000000
5.510000,1.670581,1.517380,-1.453711,0.170043,0.515188,-0.078682,-0.293024,-0.839793,-0.056470,-0.136348,1.952808,0.922113,-0.166978,4.625254,-0.670306,-0.084874,0.029690,0.000000,0.188562,0.016521,-0.000000
5.520000,1.672267,1.522491,-1.454501,0.167106,0.506889,-0.079201,-0.294395,-0.820036,-0.047285,-0.137683,1.998094,0.914695,-0.100205,4.430651,-0.812409,-0.082963,0.029857,0.000000,0.193599,0.016667,0.000000
5.530000,1.673923,1.527519,-1.455295,0.164156,0.498789,-0.079628,-0.295776,-0.799837,-0.038181,-0.138359,2.041395,0.905882,-0.035293,4.228253,-0.949421,-0.081003,0.030025,0.000000,0.198459,0.016742,-0.000000
5.540000,1.675550,1.532467,-1.456093,0.161191,0.490893,-0.079965,-0.297160,-0.779215,-0.029171,-0.138395,2.082632,0.895725,0.027632,4.017836,-1.081087,-0.078994,0.030193,0.000000,0.203132,0.016747,0.000000
5.550000,1.677147,1.537337,-1.456894,0.158212,0.483206,-0.080212,-0.298542,-0.758192,-0.020270,-0.137813,2.121724,0.884279,0.088443,3.799179,-1.207155,-0.076941,0.030360,0.000000,0.207607,0.016686,0.000000
5.560000,1.678714,1.542132,-1.457697,0.155220,0.475731,-0.080370,-0.299914,-0.736789,-0.011490,-0.136636,2.158572,0.871567,0.147074,3.572468,-1.326523,-0.074843,0.030527,0.000000,0.211871,0.016560,0.000000
5.570000,1.680251,1.546853,-1.458501,0.152214,0.468471,-0.080442,-0.301273,-0.715028,-0.002843,-0.134882,2.193126,0.857730,0.203331,3.337023,-1.439890,-0.072704,0.030692,0.000000,0.215915,0.016370,-0.000000
5.580000,1.681758,1.551502,-1.459306,0.149195,0.461431,-0.080428,-0.302610,-0.692934,0.005661,-0.132578,2.225282,0.842790,0.257080,3.092571,-1.547108,-0.070525,0.030855,0.000000,0.219727,0.016120,0.000000
5.590000,1.683235,1.556082,-1.460109,0.146162,0.454614,-0.080329,-0.303922,-0.670531,0.014009,-0.129749,2.254947,0.826809,0.308186,2.838843,-1.648026,-0.068310,0.031015,0.000000,0.223294,0.015812,-0.000000
5.600000,1.684681,1.560595,-1.460912,0.143116,0.448022,-0.080148,-0.305204,-0.647844,0.022194,-0.126424,2.282027,0.809851,0.356517,2.575564,-1.742495,-0.066060,0.031172,0.000000,0.226603,0.015448,-0.000000
5.610000,1.686097,1.565043,-1.461712,0.140058,0.441658,-0.079886,-0.306449,-0.624899,0.030203,-0.122626,2.306414,0.791947,0.401877,2.302762,-1.829510,-0.063779,0.031325,0.000000,0.229641,0.015031,-0.000000
5.620000,1.687483,1.569429,-1.462509,0.136987,0.435524,-0.079545,-0.307655,-0.601725,0.038030,-0.118393,2.328035,0.773245,0.444200,2.019830,-1.909882,-0.061469,0.031473,0.000000,0.232396,0.014565,0.000000
5.630000,1.688837,1.573755,-1.463303,0.133905,0.429624,-0.079126,-0.308816,-0.578348,0.045665,-0.113753,2.346776,0.753772,0.483361,1.726460,-1.983568,-0.059132,0.031616,0.000000,0.234855,0.014053,-0.000000
5.640000,1.690161,1.578022,-1.464092,0.130811,0.423958,-0.078632,-0.309928,-0.554799,0.053103,-0.108737,2.362529,0.733596,0.519233,1.422343,-2.050522,-0.056773,0.031754,0.000000,0.237003,0.013498,0.000000
5.650000,1.691453,1.582234,-1.464875,0.127707,0.418528,-0.078065,-0.310989,-0.531108,0.060335,-0.103380,2.375186,0.712784,0.551689,1.107170,-2.110701,-0.054393,0.031887,0.000000,0.238827,0.012903,-0.000000
5.660000,1.692715,1.586394,-1.465653,0.124592,0.413336,-0.077426,-0.311995,-0.507306,0.067356,-0.097707,2.384626,0.691374,0.580402,0.780839,-2.163285,-0.051997,0.032013,0.000000,0.240313,0.012272,-0.000000
5.670000,1.693945,1.590502,-1.466424,0.121467,0.408383,-0.076718,-0.312943,-0.483427,0.074161,-0.091775,2.390754,0.669506,0.605472,0.442810,-2.209100,-0.049588,0.032132,0.000000,0.241446,0.011611,-0.000000
5.680000,1.695144,1.594562,-1.467187,0.118333,0.403668,-0.075944,-0.313830,-0.459503,0.080745,-0.085610,2.393442,0.647214,0.626796,0.092750,-2.248196,-0.047169,0.032245,0.000000,0.242214,0.010922,-0.000000
5.690000,1.696312,1.598576,-1.467942,0.115191,0.399193,-0.075104,-0.314654,-0.435570,0.087104,-0.079252,2.392568,0.624565,0.644273,-0.269675,-2.280625,-0.044745,0.032351,0.000000,0.242599,0.010209,-0.000000
5.700000,1.697448,1.602547,-1.468689,0.112040,0.394956,-0.074202,-0.315414,-0.411664,0.093235,-0.072738,2.388006,0.601624,0.657800,-0.644799,-2.306436,-0.042319,0.032449,0.000000,0.242588,0.009477,0.000000
