time,x,y,z,vx,vy,vz,ax,ay,az,jx,jy,jz,sx,sy,sz,roll,pitch,yaw,p,q,r
0.000000,-1.966552,-1.871700,-1.491426,0.001931,-0.016436,0.006906,0.158286,0.271923,0.002051,-3.852422,-6.914785,-0.031724,87.492779,190.967852,-0.810294,0.027714,-0.016137,0.000000,-0.704299,0.392585,-0.000000
0.010000,-1.966526,-1.871852,-1.491357,0.003336,-0.014032,0.006925,0.123982,0.211979,0.001693,-3.023540,-5.107558,-0.039723,78.394125,170.729650,-0.786336,0.021607,-0.012640,0.000000,-0.520457,0.308193,-0.000000
0.020000,-1.966486,-1.871982,-1.491287,0.004437,-0.012140,0.006940,0.097523,0.169122,0.001257,-2.282373,-3.495251,-0.047391,69.945413,151.973642,-0.744494,0.017239,-0.009942,0.000000,-0.356260,0.232678,0.000000
0.030000,-1.966438,-1.872096,-1.491218,0.005310,-0.010599,0.006950,0.078063,0.141473,0.000747,-1.622552,-2.063348,-0.054557,62.120537,134.638849,-0.686121,0.014421,-0.007958,0.000000,-0.210358,0.165427,0.000000
0.040000,-1.966381,-1.872195,-1.491148,0.006019,-0.009266,0.006954,0.064821,0.127300,0.000168,-1.037970,-0.797940,-0.061063,54.893390,118.664289,-0.612569,0.012976,-0.006608,0.000000,-0.081397,0.105837,0.000000
0.050000,-1.966318,-1.872282,-1.491079,0.006624,-0.008013,0.006953,0.057073,0.125004,-0.000471,-0.522779,0.314269,-0.066763,48.237865,103.988982,-0.525192,0.012741,-0.005817,0.000000,0.031946,0.053321,0.000000
0.060000,-1.966248,-1.872355,-1.491009,0.007177,-0.006731,0.006945,0.054153,0.133117,-0.001164,-0.071394,1.285967,-0.071525,42.127857,90.551947,-0.425342,0.013567,-0.005519,0.000000,0.130947,0.007316,0.000000
0.070000,-1.966174,-1.872416,-1.490940,0.007721,-0.005321,0.006929,0.055450,0.150295,-0.001898,0.321510,2.129232,-0.075233,36.537259,78.292204,-0.314372,0.015316,-0.005651,0.000000,0.216830,-0.032719,-0.000000
0.080000,-1.966094,-1.872461,-1.490871,0.008298,-0.003699,0.006907,0.060405,0.175312,-0.002664,0.660995,2.855532,-0.077780,31.439965,67.148772,-0.193633,0.017864,-0.006156,0.000000,0.290757,-0.067299,0.000000
0.090000,-1.966008,-1.872489,-1.490802,0.008940,-0.001792,0.006876,0.068508,0.207052,-0.003450,0.951866,3.475725,-0.079077,26.809867,57.060670,-0.064480,0.021095,-0.006981,0.000000,0.353829,-0.096914,-0.000000
0.100000,-1.965915,-1.872496,-1.490733,0.009677,0.000461,0.006838,0.079295,0.244507,-0.004242,1.198663,4.000060,-0.079046,22.620861,47.966919,0.071735,0.024907,-0.008079,0.000000,0.407086,-0.122024,-0.000000
0.110000,-1.965814,-1.872478,-1.490665,0.010533,0.003114,0.006791,0.092349,0.286766,-0.005026,1.405667,4.438175,-0.077623,18.846838,39.806536,0.213660,0.029207,-0.009409,0.000000,0.451506,-0.143068,-0.000000
0.120000,-1.965704,-1.872432,-1.490597,0.011530,0.006210,0.006737,0.107290,0.333013,-0.005789,1.576896,4.799099,-0.074758,15.461694,32.518541,0.359941,0.033911,-0.010930,0.000000,0.488008,-0.160454,0.000000
0.130000,-1.965583,-1.872352,-1.490530,0.012684,0.009785,0.006676,0.123780,0.382519,-0.006516,1.716110,5.091250,-0.070415,12.439320,26.041955,0.509227,0.038944,-0.012609,0.000000,0.517449,-0.174568,0.000000
0.140000,-1.965449,-1.872235,-1.490464,0.014010,0.013869,0.006607,0.141517,0.434635,-0.007193,1.826805,5.322439,-0.064568,9.753612,20.315796,0.660164,0.044239,-0.014414,0.000000,0.540629,-0.185767,0.000000
0.150000,-1.965302,-1.872073,-1.490398,0.015518,0.018485,0.006532,0.160232,0.488788,-0.007803,1.912217,5.499865,-0.057210,7.378462,15.279083,0.811400,0.049738,-0.016319,0.000000,0.558287,-0.194383,0.000000
0.160000,-1.965138,-1.871863,-1.490333,0.017217,0.023650,0.006451,0.179687,0.544475,-0.008332,1.975322,5.630116,-0.048344,5.287764,10.870837,0.961582,0.055389,-0.018299,0.000000,0.571100,-0.200721,-0.000000
0.170000,-1.964957,-1.871598,-1.490269,0.019114,0.029378,0.006366,0.199673,0.601253,-0.008765,2.018834,5.719173,-0.037987,3.455412,7.030076,1.109357,0.061146,-0.020333,0.000000,0.579688,-0.205062,0.000000
0.180000,-1.964755,-1.871274,-1.490206,0.021212,0.035677,0.006276,0.220006,0.658739,-0.009087,2.045205,5.772406,-0.026169,1.855299,3.695820,1.253373,0.066970,-0.022402,0.000000,0.584607,-0.207658,0.000000
0.190000,-1.964532,-1.870883,-1.490144,0.023514,0.042554,0.006184,0.240527,0.716598,-0.009283,2.056627,5.794574,-0.012936,0.461319,0.807088,1.392277,0.072828,-0.024490,0.000000,0.586354,-0.208735,0.000000
0.200000,-1.964285,-1.870421,-1.490082,0.026022,0.050010,0.006091,0.261095,0.774541,-0.009341,2.055031,5.789829,0.001655,-0.752635,-1.697101,1.524716,0.078688,-0.026584,0.000000,0.585362,-0.208493,-0.000000
0.210000,-1.964011,-1.869881,-1.490022,0.028735,0.058041,0.005998,0.281635,0.832430,-0.009247,2.046259,5.772173,0.017460,-1.918031,-4.141981,1.651144,0.084539,-0.028674,0.000000,0.583059,-0.207529,-0.000000
0.220000,-1.963709,-1.869258,-1.489962,0.031653,0.066653,0.005907,0.301984,0.889908,-0.008988,2.021843,5.719770,0.034566,-2.942713,-6.291921,1.768181,0.090342,-0.030745,0.000000,0.577254,-0.204986,-0.000000
0.230000,-1.963377,-1.868546,-1.489904,0.034773,0.075837,0.005819,0.322040,0.946759,-0.008552,1.987829,5.647223,0.052788,-3.839884,-8.175544,1.874252,0.096077,-0.032787,0.000000,0.569439,-0.201482,-0.000000
0.240000,-1.963013,-1.867739,-1.489846,0.038093,0.085586,0.005736,0.341713,1.002794,-0.007928,1.945426,5.557051,0.072009,-4.622750,-9.821473,1.967784,0.101725,-0.034791,0.000000,0.559879,-0.197141,0.000000
0.250000,-1.962615,-1.866832,-1.489789,0.041606,0.095890,0.005661,0.360924,1.057848,-0.007109,1.895711,5.451490,0.092096,-5.304515,-11.258331,2.047203,0.107269,-0.036748,0.000000,0.548812,-0.192076,0.000000
0.260000,-1.962180,-1.865820,-1.489733,0.045309,0.106737,0.005595,0.379629,1.111830,-0.006082,1.841718,5.337245,0.113087,-5.951149,-12.634948,2.106219,0.112702,-0.038655,0.000000,0.536922,-0.186596,0.000000
0.270000,-1.961708,-1.864696,-1.489677,0.049196,0.118120,0.005540,0.397738,1.164550,-0.004845,1.779314,5.204713,0.134375,-6.516631,-13.845020,2.148551,0.118004,-0.040502,0.000000,0.523251,-0.180282,-0.000000
0.280000,-1.961196,-1.863455,-1.489622,0.053261,0.130024,0.005499,0.415197,1.215887,-0.003393,1.711634,5.060854,0.155999,-7.007705,-14.902452,2.173203,0.123163,-0.042284,0.000000,0.508508,-0.173454,0.000000
0.290000,-1.960642,-1.862094,-1.489567,0.057498,0.142433,0.005473,0.431956,1.265734,-0.001725,1.639386,4.907126,0.177777,-7.431115,-15.821145,2.179178,0.128171,-0.043996,0.000000,0.492843,-0.166183,-0.000000
0.300000,-1.960045,-1.860605,-1.489512,0.061898,0.155333,0.005465,0.447972,1.314001,0.000162,1.563214,4.744847,0.199517,-7.793605,-16.615004,2.165480,0.133018,-0.045634,0.000000,0.476393,-0.158534,-0.000000
0.310000,-1.959404,-1.858985,-1.489458,0.066454,0.168707,0.005477,0.463220,1.360630,0.002268,1.484730,4.577341,0.221347,-8.128078,-17.352118,2.122793,0.137699,-0.047195,0.000000,0.459496,-0.150670,-0.000000
0.320000,-1.958716,-1.857230,-1.489403,0.071159,0.182539,0.005511,0.477656,1.405525,0.004587,1.401989,4.400569,0.242276,-8.411916,-17.985570,2.059458,0.142206,-0.048675,0.000000,0.441738,-0.142391,-0.000000
0.330000,-1.957980,-1.855333,-1.489347,0.076004,0.196812,0.005569,0.491251,1.448622,0.007112,1.316649,4.217951,0.262468,-8.648659,-18.522629,1.975498,0.146532,-0.050071,0.000000,0.423464,-0.133864,0.000000
0.340000,-1.957195,-1.853292,-1.489291,0.080981,0.211506,0.005654,0.503982,1.489868,0.009833,1.229161,4.030414,0.281717,-8.841849,-18.970564,1.870935,0.150673,-0.051381,0.000000,0.404763,-0.125132,-0.000000
0.350000,-1.956360,-1.851102,-1.489234,0.086081,0.226603,0.005766,0.515829,1.529217,0.012742,1.139945,3.838812,0.299818,-8.995027,-19.336643,1.745792,0.154626,-0.052602,0.000000,0.385717,-0.116235,-0.000000
0.360000,-1.955473,-1.848759,-1.489176,0.091295,0.242083,0.005909,0.526782,1.566643,0.015829,1.049888,3.644892,0.316906,-9.124495,-19.652446,1.591458,0.158388,-0.053733,0.000000,0.366497,-0.107262,0.000000
0.370000,-1.954534,-1.846259,-1.489116,0.096614,0.257929,0.006083,0.536823,1.602105,0.019075,0.958140,3.447083,0.331967,-9.219470,-19.897954,1.417646,0.161955,-0.054774,0.000000,0.346929,-0.098119,-0.000000
0.380000,-1.953541,-1.843599,-1.489054,0.102028,0.274119,0.006291,0.545942,1.635578,0.022462,0.865607,3.247153,0.345198,-9.281930,-20.077460,1.225433,0.165326,-0.055722,0.000000,0.327187,-0.088898,-0.000000
0.390000,-1.952493,-1.840775,-1.488990,0.107529,0.290633,0.006533,0.554133,1.667043,0.025972,0.772603,3.045740,0.356418,-9.313854,-20.195254,1.015898,0.168499,-0.056576,0.000000,0.307324,-0.079626,-0.000000
0.400000,-1.951390,-1.837785,-1.488923,0.113108,0.307453,0.006811,0.561394,1.696490,0.029583,0.679425,2.843439,0.365462,-9.317218,-20.255629,0.790122,0.171472,-0.057337,0.000000,0.287393,-0.070331,-0.000000
0.410000,-1.950230,-1.834625,-1.488854,0.118754,0.324556,0.007125,0.567725,1.723916,0.033276,0.586584,2.641234,0.372423,-9.299967,-20.273732,0.542789,0.174247,-0.058004,0.000000,0.267484,-0.061062,-0.000000
0.420000,-1.949014,-1.831293,-1.488781,0.124459,0.341924,0.007476,0.573126,1.749315,0.037023,0.493776,2.438616,0.376558,-9.257383,-20.241671,0.282154,0.176822,-0.058577,0.000000,0.247529,-0.051783,-0.000000
0.430000,-1.947741,-1.827786,-1.488704,0.130214,0.359536,0.007865,0.577602,1.772690,0.040798,0.401516,2.236558,0.378028,-9.190714,-20.162408,0.010081,0.179198,-0.059056,0.000000,0.227618,-0.042545,0.000000
0.440000,-1.946410,-1.824102,-1.488623,0.136008,0.377371,0.008292,0.581159,1.794049,0.044575,0.310038,2.035516,0.376728,-9.101207,-20.038905,-0.271569,0.181375,-0.059442,0.000000,0.207789,-0.033368,-0.000000
0.450000,-1.945021,-1.820238,-1.488538,0.141834,0.395410,0.008757,0.583806,1.813405,0.048323,0.219564,1.835917,0.372571,-8.990111,-19.874124,-0.560934,0.183354,-0.059735,0.000000,0.188075,-0.024273,0.000000
0.460000,-1.943573,-1.816193,-1.488448,0.147681,0.413633,0.009259,0.585556,1.830776,0.052017,0.130402,1.638352,0.365599,-8.861154,-19.675859,-0.858910,0.185137,-0.059936,0.000000,0.168528,-0.015290,0.000000
0.470000,-1.942067,-1.811965,-1.488353,0.153542,0.432019,0.009797,0.586419,1.846179,0.055625,0.042516,1.442736,0.355504,-8.712799,-19.441651,-1.160539,0.186725,-0.060046,0.000000,0.149129,-0.006413,0.000000
0.480000,-1.940502,-1.807552,-1.488252,0.159407,0.450550,0.010371,0.586411,1.859639,0.059117,-0.043793,1.249631,0.342383,-8.545990,-19.173871,-1.463621,0.188120,-0.060067,0.000000,0.129927,0.002329,-0.000000
0.490000,-1.938879,-1.802953,-1.488145,0.165267,0.469205,0.010979,0.585549,1.871181,0.062463,-0.128345,1.059362,0.326234,-8.361671,-18.874890,-1.765958,0.189324,-0.059999,0.000000,0.110952,0.010918,0.000000
0.500000,-1.937197,-1.798168,-1.488032,0.171115,0.487967,0.011619,0.583851,1.880837,0.065632,-0.210971,0.872229,0.307074,-8.160788,-18.547080,-2.065349,0.190340,-0.059845,0.000000,0.092226,0.019336,0.000000
0.510000,-1.935457,-1.793194,-1.487913,0.176941,0.506816,0.012291,0.581337,1.888638,0.068594,-0.291479,0.688600,0.284899,-7.945038,-18.195122,-2.358451,0.191170,-0.059606,0.000000,0.073783,0.027565,-0.000000
0.520000,-1.933658,-1.788031,-1.487786,0.182739,0.525734,0.012990,0.578029,1.894621,0.071320,-0.369789,0.508511,0.259878,-7.714519,-17.818795,-2.644347,0.191816,-0.059284,0.000000,0.055626,0.035595,-0.000000
0.530000,-1.931802,-1.782679,-1.487653,0.188499,0.544702,0.013716,0.573949,1.898821,0.073782,-0.445723,0.332299,0.232043,-7.470081,-17.420186,-2.920980,0.192283,-0.058882,0.000000,0.037786,0.043406,-0.000000
0.540000,-1.929889,-1.777137,-1.487512,0.194215,0.563704,0.014465,0.569122,1.901280,0.075952,-0.519147,0.160175,0.201496,-7.212576,-17.001383,-3.186287,0.192573,-0.058401,0.000000,0.020284,0.050985,-0.000000
0.550000,-1.927918,-1.771405,-1.487363,0.199879,0.582722,0.015234,0.563575,1.902039,0.077804,-0.589934,-0.007669,0.168362,-6.942855,-16.564475,-3.438211,0.192690,-0.057844,0.000000,0.003140,0.058316,0.000000
0.560000,-1.925891,-1.765482,-1.487207,0.205485,0.601740,0.016020,0.557333,1.901142,0.079309,-0.657963,-0.170997,0.132609,-6.661848,-16.113163,-3.670281,0.192637,-0.057213,0.000000,-0.013623,0.065386,-0.000000
0.570000,-1.923809,-1.759370,-1.487043,0.211024,0.620740,0.016819,0.550425,1.898635,0.080448,-0.723132,-0.329813,0.094816,-6.370319,-15.647724,-3.885387,0.192419,-0.056512,0.000000,-0.029996,0.072179,-0.000000
0.580000,-1.921671,-1.753068,-1.486871,0.216491,0.639707,0.017628,0.542880,1.894562,0.081199,-0.785337,-0.483911,0.054963,-6.069110,-15.170050,-4.082011,0.192039,-0.055744,0.000000,-0.045957,0.078685,-0.000000
0.590000,-1.919479,-1.746576,-1.486690,0.221880,0.658626,0.018442,0.534729,1.888972,0.081541,-0.844485,-0.633179,0.013242,-5.759063,-14.682031,-4.258632,0.191501,-0.054910,0.000000,-0.061490,0.084889,0.000000
0.600000,-1.917234,-1.739895,-1.486502,0.227184,0.677482,0.019257,0.526001,1.881915,0.081458,-0.900492,-0.777524,-0.030138,-5.441020,-14.185559,-4.413732,0.190811,-0.054015,0.000000,-0.076581,0.090781,0.000000
0.610000,-1.914936,-1.733027,-1.486305,0.232398,0.696260,0.020070,0.516729,1.873439,0.080931,-0.953279,-0.916793,-0.075212,-5.115894,-13.684431,-4.539315,0.189971,-0.053062,0.000000,-0.091212,0.096351,-0.000000
0.620000,-1.912586,-1.725970,-1.486101,0.237517,0.714946,0.020874,0.506946,1.863596,0.079950,-1.002785,-1.051111,-0.121134,-4.784448,-13.178398,-4.641130,0.188988,-0.052054,0.000000,-0.105376,0.101587,0.000000
0.630000,-1.910186,-1.718728,-1.485888,0.242535,0.733527,0.021667,0.496685,1.852434,0.078505,-1.048949,-1.180350,-0.167953,-4.447515,-12.669117,-4.718449,0.187865,-0.050995,0.000000,-0.119061,0.106481,-0.000000
0.640000,-1.907736,-1.711300,-1.485667,0.247449,0.751990,0.022443,0.485979,1.840006,0.076589,-1.091720,-1.304488,-0.215419,-4.105929,-12.158243,-4.770547,0.186608,-0.049887,0.000000,-0.132254,0.111024,-0.000000
0.650000,-1.905237,-1.703689,-1.485439,0.252253,0.770323,0.023197,0.474862,1.826361,0.074196,-1.131055,-1.423515,-0.263277,-3.760522,-11.647436,-4.796696,0.185222,-0.048736,0.000000,-0.144948,0.115210,0.000000
0.660000,-1.902691,-1.695894,-1.485203,0.256945,0.788514,0.023925,0.463369,1.811554,0.071320,-1.166902,-1.537337,-0.311546,-3.412590,-11.141003,-4.789050,0.183711,-0.047544,0.000000,-0.157129,0.119032,-0.000000
0.670000,-1.900099,-1.687919,-1.484961,0.261519,0.806551,0.024622,0.451536,1.795632,0.067965,-1.199279,-1.646227,-0.359288,-3.062449,-10.637625,-4.754874,0.182081,-0.046316,0.000000,-0.168806,0.122486,0.000000
0.680000,-1.897461,-1.679764,-1.484711,0.265974,0.824423,0.025283,0.439396,1.778646,0.064136,-1.228146,-1.750104,-0.406556,-2.710875,-10.138636,-4.694312,0.180337,-0.045055,0.000000,-0.179966,0.125569,0.000000
0.690000,-1.894779,-1.671431,-1.484455,0.270306,0.842120,0.025903,0.426984,1.760646,0.059837,-1.253494,-1.849019,-0.453087,-2.358645,-9.645366,-4.607510,0.178483,-0.043765,0.000000,-0.190608,0.128276,0.000000
0.700000,-1.892055,-1.662922,-1.484193,0.274513,0.859632,0.026478,0.414337,1.741682,0.055077,-1.275320,-1.943035,-0.498619,-2.006536,-9.159149,-4.494611,0.176526,-0.042449,0.000000,-0.200731,0.130606,0.000000
0.710000,-1.889290,-1.654239,-1.483926,0.278593,0.876951,0.027003,0.401490,1.721803,0.049866,-1.293589,-2.032096,-0.543147,-1.656317,-8.684713,-4.349320,0.174471,-0.041113,0.000000,-0.210326,0.132556,-0.000000
0.720000,-1.886484,-1.645384,-1.483653,0.282543,0.894066,0.027474,0.388477,1.701055,0.044220,-1.308407,-2.116609,-0.585809,-1.307652,-8.219578,-4.179011,0.172321,-0.039758,0.000000,-0.219417,0.134133,-0.000000
0.730000,-1.883639,-1.636358,-1.483376,0.286362,0.910969,0.027886,0.375334,1.679486,0.038156,-1.319749,-2.196521,-0.626647,-0.961195,-7.764662,-3.984620,0.170084,-0.038391,0.000000,-0.227998,0.135335,0.000000
0.740000,-1.880757,-1.627165,-1.483096,0.290049,0.927653,0.028236,0.362094,1.657140,0.031694,-1.327640,-2.271939,-0.665425,-0.617602,-7.320882,-3.767079,0.167763,-0.037013,0.000000,-0.236074,0.136166,-0.000000
0.750000,-1.877839,-1.617806,-1.482812,0.293603,0.944109,0.028519,0.348792,1.634062,0.024855,-1.332113,-2.342979,-0.701915,-0.277529,-6.889155,-3.527323,0.165364,-0.035630,0.000000,-0.243652,0.136628,-0.000000
0.760000,-1.874885,-1.608284,-1.482526,0.297025,0.960332,0.028732,0.335463,1.610296,0.017662,-1.333148,-2.409615,-0.736089,0.056941,-6.474191,-3.261509,0.162892,-0.034244,0.000000,-0.250729,0.136720,-0.000000
0.770000,-1.871899,-1.598600,-1.482238,0.300313,0.976313,0.028871,0.322140,1.585883,0.010142,-1.330926,-2.472338,-0.767292,0.386756,-6.072648,-2.975932,0.160351,-0.032860,0.000000,-0.257343,0.136462,0.000000
0.780000,-1.868880,-1.588758,-1.481949,0.303468,0.992047,0.028934,0.308856,1.560863,0.002326,-1.325430,-2.531115,-0.795547,0.711434,-5.684980,-2.672110,0.157747,-0.031481,0.000000,-0.263494,0.135852,-0.000000
0.790000,-1.865830,-1.578760,-1.481659,0.306490,1.007528,0.028917,0.295642,1.535273,-0.005758,-1.316716,-2.586086,-0.820679,1.030497,-5.311638,-2.351564,0.155083,-0.030110,0.000000,-0.269192,0.134899,-0.000000
0.800000,-1.862750,-1.568609,-1.481370,0.309381,1.022751,0.028818,0.282532,1.509153,-0.014077,-1.304841,-2.637397,-0.842528,1.343462,-4.953074,-2.015812,0.152364,-0.028751,0.000000,-0.274452,0.133609,-0.000000
0.810000,-1.859643,-1.558306,-1.481083,0.312141,1.037710,0.028635,0.269557,1.482539,-0.022599,-1.289805,-2.685052,-0.861052,1.648252,-4.613428,-1.663789,0.149595,-0.027408,0.000000,-0.279277,0.131986,0.000000
0.820000,-1.856508,-1.547855,-1.480798,0.314772,1.052400,0.028365,0.256746,1.455463,-0.031286,-1.271827,-2.729551,-0.875879,1.946179,-4.289013,-1.299915,0.146780,-0.026083,0.000000,-0.283713,0.130053,0.000000
0.830000,-1.853347,-1.537259,-1.480516,0.317277,1.066818,0.028008,0.244130,1.427958,-0.040104,-1.250905,-2.770883,-0.887017,2.236959,-3.979830,-0.926023,0.143922,-0.024779,0.000000,-0.287761,0.127811,0.000000
0.840000,-1.850163,-1.526520,-1.480238,0.319656,1.080958,0.027563,0.231737,1.400055,-0.049014,-1.227113,-2.809199,-0.894372,2.520307,-3.685881,-0.543948,0.141026,-0.023501,0.000000,-0.291441,0.125272,0.000000
0.850000,-1.846955,-1.515641,-1.479965,0.321912,1.094817,0.027028,0.219597,1.371784,-0.057978,-1.200525,-2.844651,-0.897874,2.795940,-3.407166,-0.155525,0.138095,-0.022250,0.000000,-0.294769,0.122445,0.000000
0.860000,-1.843725,-1.504624,-1.479698,0.324049,1.108392,0.026403,0.207737,1.343173,-0.066959,-1.171164,-2.877274,-0.897480,3.062139,-3.146695,0.237710,0.135132,-0.021029,0.000000,-0.297753,0.119335,-0.000000
0.870000,-1.840474,-1.493474,-1.479437,0.326068,1.121680,0.025689,0.196182,1.314247,-0.075915,-1.139245,-2.907500,-0.893125,3.320229,-2.901091,0.633587,0.132141,-0.019842,0.000000,-0.300439,0.115966,0.000000
0.880000,-1.837204,-1.482192,-1.479184,0.327973,1.134676,0.024885,0.184960,1.285031,-0.084808,-1.104787,-2.935344,-0.884806,3.570098,-2.669987,1.030232,0.129124,-0.018690,0.000000,-0.302833,0.112342,0.000000
0.890000,-1.833915,-1.470781,-1.478940,0.329768,1.147380,0.023993,0.174095,1.255547,-0.093598,-1.067871,-2.960947,-0.872524,3.811639,-2.453016,1.425775,0.126085,-0.017577,0.000000,-0.304955,0.108474,-0.000000
0.900000,-1.830609,-1.459245,-1.478705,0.331457,1.159787,0.023014,0.163611,1.225819,-0.102245,-1.028582,-2.984450,-0.856300,4.044740,-2.249810,1.818344,0.123026,-0.016504,0.000000,-0.306822,0.104371,-0.000000
0.910000,-1.827286,-1.447587,-1.478480,0.333042,1.171895,0.021949,0.153531,1.195866,-0.110710,-0.986966,-3.005910,-0.836106,4.268325,-2.061984,2.204381,0.119949,-0.015475,0.000000,-0.308446,0.100042,-0.000000
0.920000,-1.823948,-1.435808,-1.478266,0.334529,1.183703,0.020800,0.143879,1.165707,-0.118954,-0.943201,-3.025644,-0.812159,4.483371,-1.886945,2.583906,0.116858,-0.014490,0.000000,-0.309866,0.095504,0.000000
0.930000,-1.820596,-1.423913,-1.478064,0.335921,1.195209,0.019571,0.134674,1.135359,-0.126941,-0.897328,-3.043689,-0.784455,4.689887,-1.724084,2.955255,0.113753,-0.013552,0.000000,-0.311089,0.090765,-0.000000
0.940000,-1.817230,-1.411905,-1.477875,0.337224,1.206410,0.018262,0.125939,1.104838,-0.134631,-0.849432,-3.060164,-0.753086,4.887883,-1.572789,3.316763,0.110636,-0.012663,0.000000,-0.312135,0.085833,-0.000000
0.950000,-1.813852,-1.399786,-1.477699,0.338441,1.217305,0.016879,0.117692,1.074160,-0.141991,-0.799598,-3.075181,-0.718158,5.077366,-1.432452,3.666764,0.107511,-0.011825,0.000000,-0.313019,0.080719,0.000000
0.960000,-1.810462,-1.387560,-1.477538,0.339579,1.227892,0.015424,0.109953,1.043339,-0.148982,-0.747899,-3.088815,-0.679670,5.258010,-1.303293,4.000442,0.104377,-0.011040,0.000000,-0.313753,0.075429,0.000000
0.970000,-1.807061,-1.375230,-1.477391,0.340642,1.238171,0.013901,0.102740,1.012388,-0.155573,-0.694451,-3.101242,-0.638057,5.430202,-1.183769,4.319669,0.101236,-0.010309,0.000000,-0.314365,0.069977,0.000000
0.980000,-1.803649,-1.362798,-1.477260,0.341636,1.248140,0.012314,0.096070,0.981318,-0.161732,-0.639323,-3.112520,-0.593329,5.593992,-1.073168,4.623165,0.098090,-0.009634,0.000000,-0.314865,0.064370,0.000000
0.990000,-1.800228,-1.350268,-1.477145,0.342565,1.257797,0.010668,0.089959,0.950141,-0.167430,-0.582599,-3.122733,-0.545651,5.749432,-0.970776,4.909652,0.094939,-0.009016,0.000000,-0.315265,0.058615,0.000000
1.000000,-1.796798,-1.337643,-1.477047,0.343437,1.267142,0.008967,0.084423,0.918867,-0.172636,-0.524362,-3.131960,-0.495197,5.896571,-0.875882,5.177850,0.091785,-0.008457,0.000000,-0.315581,0.052720,-0.000000
1.010000,-1.793359,-1.324926,-1.476966,0.344256,1.276174,0.007217,0.079476,0.887505,-0.177323,-0.464707,-3.140284,-0.441999,6.035756,-0.787504,5.422437,0.088628,-0.007958,0.000000,-0.315823,0.046695,-0.000000
1.020000,-1.789913,-1.312120,-1.476903,0.345028,1.284892,0.005422,0.075133,0.856064,-0.181468,-0.403688,-3.147743,-0.386636,6.166706,-0.705233,5.646671,0.085468,-0.007520,0.000000,-0.316004,0.040543,-0.000000
1.030000,-1.786459,-1.299229,-1.476857,0.345761,1.293295,0.003589,0.071407,0.824553,-0.185049,-0.341400,-3.154407,-0.329136,6.289434,-0.628390,5.849769,0.082308,-0.007144,0.000000,-0.316134,0.034274,0.000000
1.040000,-1.782998,-1.286255,-1.476831,0.346459,1.301383,0.001723,0.068309,0.792978,-0.188045,-0.277927,-3.160326,-0.269714,6.403954,-0.556294,6.030946,0.079146,-0.006832,0.000000,-0.316222,0.027893,0.000000
1.050000,-1.779530,-1.273203,-1.476823,0.347129,1.309155,-0.000170,0.065852,0.761349,-0.190438,-0.213349,-3.165546,-0.208592,6.510279,-0.488267,6.189418,0.075983,-0.006585,0.000000,-0.316278,0.021408,0.000000
1.060000,-1.776055,-1.260073,-1.476834,0.347778,1.316610,-0.002084,0.064045,0.729669,-0.192210,-0.147777,-3.170144,-0.145831,6.609148,-0.422592,6.320037,0.072820,-0.006403,0.000000,-0.316311,0.014828,0.000000
1.070000,-1.772574,-1.246871,-1.476865,0.348412,1.323748,-0.004012,0.062899,0.697948,-0.193350,-0.081225,-3.174054,-0.082076,6.699763,-0.359754,6.426916,0.069657,-0.006288,0.000000,-0.316322,0.008151,-0.000000
1.080000,-1.769087,-1.233600,-1.476915,0.349038,1.330569,-0.005948,0.062424,0.666190,-0.193848,-0.013809,-3.177347,-0.017372,6.782049,-0.299202,6.509806,0.066494,-0.006240,0.000000,-0.316319,0.001388,-0.000000
1.090000,-1.765594,-1.220261,-1.476984,0.349663,1.337072,-0.007887,0.062626,0.634403,-0.193695,0.054388,-3.180044,0.048039,6.855931,-0.240384,6.568456,0.063331,-0.006260,0.000000,-0.316306,-0.005456,-0.000000
1.100000,-1.762094,-1.206859,-1.477072,0.350293,1.343257,-0.009820,0.063514,0.602591,-0.192886,0.123281,-3.182158,0.113915,6.921335,-0.182747,6.602618,0.060168,-0.006349,0.000000,-0.316289,-0.012374,0.000000
1.110000,-1.758588,-1.193397,-1.477180,0.350935,1.349123,-0.011742,0.065093,0.570761,-0.191414,0.192754,-3.183758,0.180176,6.979001,-0.124292,6.607830,0.057005,-0.006508,0.000000,-0.316273,-0.019358,-0.000000
1.120000,-1.755075,-1.179878,-1.477307,0.351597,1.354672,-0.013646,0.067371,0.538918,-0.189283,0.262796,-3.184710,0.246178,7.027941,-0.066092,6.588568,0.053842,-0.006737,0.000000,-0.316251,-0.026408,0.000000
1.130000,-1.751556,-1.166305,-1.477453,0.352285,1.359902,-0.015526,0.070351,0.507069,-0.186492,0.333283,-3.185079,0.311867,7.067979,-0.007772,6.545099,0.050680,-0.007037,0.000000,-0.316228,-0.033515,0.000000
1.140000,-1.748029,-1.152681,-1.477617,0.353006,1.364813,-0.017374,0.074037,0.475218,-0.183047,0.404125,-3.184864,0.377000,7.098941,0.051044,6.477688,0.047518,-0.007409,0.000000,-0.316204,-0.040672,-0.000000
1.150000,-1.744496,-1.139009,-1.477800,0.353768,1.369406,-0.019185,0.078434,0.443373,-0.178955,0.475231,-3.184056,0.441341,7.120654,0.110730,6.386601,0.044356,-0.007852,0.000000,-0.316181,-0.047872,-0.000000
1.160000,-1.740954,-1.125294,-1.478001,0.354577,1.373681,-0.020951,0.083542,0.411539,-0.174222,0.546486,-3.182705,0.504801,7.133464,0.173185,6.268407,0.041194,-0.008367,0.000000,-0.316160,-0.055107,-0.000000
1.170000,-1.737404,-1.111537,-1.478219,0.355441,1.377637,-0.022667,0.089364,0.379721,-0.168863,0.617844,-3.180655,0.566799,7.136612,0.237073,6.127520,0.038033,-0.008955,0.000000,-0.316129,-0.062374,0.000000
1.180000,-1.733845,-1.097742,-1.478454,0.356367,1.381275,-0.024326,0.095899,0.347928,-0.162891,0.689185,-3.177958,0.627278,7.129858,0.302582,5.964660,0.034872,-0.009616,0.000000,-0.316089,-0.069662,-0.000000
1.190000,-1.730276,-1.083912,-1.478705,0.357362,1.384596,-0.025923,0.103147,0.316164,-0.156323,0.760408,-3.174597,0.686021,7.112966,0.369901,5.780544,0.031711,-0.010349,0.000000,-0.316039,-0.076963,-0.000000
1.200000,-1.726697,-1.070051,-1.478972,0.358432,1.387599,-0.027451,0.111107,0.284438,-0.149177,0.831410,-3.170554,0.742820,7.085695,0.439218,5.575890,0.028551,-0.011156,0.000000,-0.315974,-0.084269,0.000000
1.210000,-1.723107,-1.056162,-1.479254,0.359586,1.390285,-0.028905,0.119774,0.252755,-0.141473,0.902092,-3.165858,0.797588,7.047654,0.512051,5.348521,0.025391,-0.012035,0.000000,-0.315895,-0.091571,0.000000
1.220000,-1.719505,-1.042247,-1.479550,0.360830,1.392654,-0.030278,0.129147,0.221123,-0.133233,0.972334,-3.160365,0.849857,6.998777,0.587095,5.102406,0.022233,-0.012988,0.000000,-0.315786,-0.098857,0.000000
1.230000,-1.715890,-1.028309,-1.479860,0.362172,1.394707,-0.031567,0.139219,0.189550,-0.124484,1.042031,-3.154109,0.899577,6.938846,0.664377,4.838617,0.019076,-0.014013,0.000000,-0.315646,-0.106119,0.000000
1.240000,-1.712262,-1.014353,-1.480181,0.363617,1.396445,-0.032767,0.149985,0.158044,-0.115251,1.111073,-3.147069,0.946574,6.867640,0.743921,4.558228,0.015920,-0.015110,0.000000,-0.315470,-0.113345,0.000000
1.250000,-1.708618,-1.000382,-1.480515,0.365174,1.397868,-0.033871,0.161438,0.126612,-0.105562,1.179346,-3.139223,0.990690,6.784940,0.825753,4.262310,0.012767,-0.016280,0.000000,-0.315252,-0.120524,-0.000000
1.260000,-1.704958,-0.986397,-1.480858,0.366848,1.398978,-0.034876,0.173570,0.095262,-0.095446,1.246765,-3.130585,1.031847,6.689719,0.910876,3.950056,0.009615,-0.017521,0.000000,-0.314989,-0.127647,-0.000000
1.270000,-1.701280,-0.972403,-1.481212,0.368647,1.399774,-0.035779,0.186370,0.064003,-0.084936,1.313137,-3.121042,1.069731,6.582664,0.998218,3.624649,0.006467,-0.018833,0.000000,-0.314666,-0.134694,-0.000000
1.280000,-1.697584,-0.958403,-1.481574,0.370578,1.400258,-0.036574,0.199829,0.032844,-0.074063,1.378378,-3.110614,1.104300,6.463655,1.087684,3.287394,0.003322,-0.020215,0.000000,-0.314281,-0.141655,0.000000
1.290000,-1.693868,-0.944399,-1.481943,0.372646,1.400431,-0.037259,0.213934,0.001794,-0.062861,1.442370,-3.099281,1.135444,6.332573,1.179181,2.939593,0.000182,-0.021665,0.000000,-0.313825,-0.148517,-0.000000
1.300000,-1.690131,-0.930395,-1.482318,0.374858,1.400294,-0.037830,0.228671,-0.029139,-0.051366,1.504989,-3.087024,1.163061,6.189297,1.272613,2.582550,-0.002954,-0.023184,0.000000,-0.313293,-0.155265,-0.000000
1.310000,-1.686371,-0.916394,-1.482699,0.377221,1.399849,-0.038285,0.244029,-0.059944,-0.039612,1.566171,-3.073841,1.187097,6.032270,1.368333,2.216834,-0.006084,-0.024770,0.000000,-0.312679,-0.161892,0.000000
1.320000,-1.682586,-0.902399,-1.483084,0.379741,1.399096,-0.038622,0.259989,-0.090612,-0.027636,1.625658,-3.059672,1.207409,5.862985,1.465746,1.844573,-0.009207,-0.026422,0.000000,-0.311971,-0.168368,-0.000000
1.330000,-1.678775,-0.888413,-1.483471,0.382423,1.398037,-0.038837,0.276536,-0.121134,-0.015476,1.683390,-3.044521,1.223971,5.681497,1.564701,1.467157,-0.012323,-0.028137,0.000000,-0.311165,-0.174684,0.000000
1.340000,-1.674937,-0.874439,-1.483860,0.385274,1.396674,-0.038931,0.293651,-0.151499,-0.003169,1.739247,-3.028373,1.236740,5.487863,1.665050,1.085981,-0.015430,-0.029915,0.000000,-0.310252,-0.180824,0.000000
1.350000,-1.671069,-0.860481,-1.484249,0.388298,1.395008,-0.038900,0.311315,-0.181698,0.009246,1.793107,-3.011215,1.245683,5.282136,1.766643,0.702437,-0.018528,-0.031754,0.000000,-0.309227,-0.186773,-0.000000
1.360000,-1.667170,-0.846540,-1.484638,0.391502,1.393040,-0.038746,0.329509,-0.211721,0.021731,1.845077,-2.993056,1.250761,5.058628,1.869833,0.318516,-0.021614,-0.033651,0.000000,-0.308085,-0.192537,-0.000000
1.370000,-1.663239,-0.832621,-1.485024,0.394890,1.390774,-0.038466,0.348208,-0.241556,0.034248,1.894499,-2.973838,1.252028,4.823843,1.973907,-0.065060,-0.024689,-0.035605,0.000000,-0.306814,-0.198046,0.000000
1.380000,-1.659272,-0.818726,-1.485407,0.398467,1.388210,-0.038061,0.367391,-0.271194,0.046759,1.941519,-2.953576,1.249466,4.578541,2.078655,-0.446971,-0.027750,-0.037612,0.000000,-0.305411,-0.203310,0.000000
1.390000,-1.655269,-0.804858,-1.485785,0.402239,1.385351,-0.037531,0.387030,-0.300624,0.059225,1.986037,-2.932264,1.243098,4.323481,2.183867,-0.825900,-0.030797,-0.039671,0.000000,-0.303869,-0.208313,-0.000000
1.400000,-1.651226,-0.791020,-1.486157,0.406209,1.382198,-0.036876,0.407103,-0.329836,0.071608,2.027959,-2.909898,1.232962,4.059423,2.289331,-1.200526,-0.033827,-0.041780,0.000000,-0.302183,-0.213042,0.000000
1.410000,-1.647144,-0.777215,-1.486522,0.410382,1.378755,-0.036099,0.427580,-0.358818,0.083871,2.067111,-2.886469,1.219041,3.789328,2.394634,-1.567867,-0.036840,-0.043934,0.000000,-0.300347,-0.217474,-0.000000
1.420000,-1.643018,-0.763446,-1.486878,0.414762,1.375023,-0.035199,0.448436,-0.387561,0.095977,2.103621,-2.861996,1.201553,3.511484,2.499793,-1.928470,-0.039834,-0.046131,0.000000,-0.298360,-0.221617,-0.000000
1.430000,-1.638848,-0.749715,-1.487225,0.419352,1.371004,-0.034180,0.469643,-0.416055,0.107890,2.137316,-2.836474,1.180498,3.226381,2.604623,-2.281218,-0.042807,-0.048369,0.000000,-0.296215,-0.225448,-0.000000
1.440000,-1.634630,-0.736026,-1.487561,0.424156,1.366702,-0.033042,0.491172,-0.444287,0.119575,2.168126,-2.809906,1.155959,2.934509,2.708939,-2.624996,-0.045757,-0.050643,0.000000,-0.293909,-0.228957,-0.000000
1.450000,-1.630364,-0.722382,-1.487886,0.429177,1.362120,-0.031789,0.512995,-0.472249,0.130998,2.195986,-2.782297,1.128031,2.636358,2.812556,-2.958687,-0.048684,-0.052951,0.000000,-0.291441,-0.232130,-0.000000
1.460000,-1.626046,-0.708785,-1.488197,0.434417,1.357258,-0.030423,0.535082,-0.499930,0.142124,2.220844,-2.753624,1.096724,2.332158,2.914440,-3.278710,-0.051586,-0.055290,0.000000,-0.288802,-0.234959,0.000000
1.470000,-1.621675,-0.695238,-1.488494,0.439879,1.352122,-0.028948,0.557402,-0.527318,0.152922,2.242623,-2.723974,1.062387,2.022691,3.015358,-3.586717,-0.054460,-0.057656,0.000000,-0.286001,-0.237431,0.000000
1.480000,-1.617248,-0.681743,-1.488776,0.445566,1.346713,-0.027366,0.579924,-0.554406,0.163362,2.261282,-2.693320,1.025033,1.708478,3.115226,-3.881893,-0.057305,-0.060044,0.000000,-0.283032,-0.239538,-0.000000
1.490000,-1.612763,-0.668305,-1.489041,0.451478,1.341035,-0.025682,0.602617,-0.581181,0.173413,2.276778,-2.661673,0.984795,1.390039,3.213963,-4.163424,-0.060120,-0.062453,0.000000,-0.279894,-0.241273,-0.000000
1.500000,-1.608217,-0.654924,-1.489289,0.457618,1.335090,-0.023899,0.625449,-0.607636,0.183049,2.289071,-2.629045,0.941813,1.067897,3.311487,-4.430496,-0.062902,-0.064877,0.000000,-0.276587,-0.242626,0.000000
1.510000,-1.603610,-0.641604,-1.489519,0.463988,1.328883,-0.022022,0.648390,-0.633759,0.192240,2.298325,-2.595437,0.896118,0.737545,3.407445,-4.679324,-0.065651,-0.067314,0.000000,-0.273111,-0.243613,-0.000000
1.520000,-1.598937,-0.628347,-1.489729,0.470586,1.322416,-0.020056,0.671405,-0.659541,0.200963,2.304039,-2.560889,0.848146,0.405148,3.502059,-4.912429,-0.068364,-0.069759,0.000000,-0.269469,-0.244179,-0.000000
1.530000,-1.594197,-0.615156,-1.489919,0.477416,1.315694,-0.018005,0.694460,-0.684974,0.209195,2.306425,-2.525401,0.797923,0.071843,3.595281,-5.129360,-0.071040,-0.072208,0.000000,-0.265663,-0.244345,-0.000000
1.540000,-1.589388,-0.602034,-1.490089,0.484476,1.308718,-0.015874,0.717522,-0.710046,0.216914,2.305477,-2.488988,0.745614,-0.261232,3.687062,-5.329668,-0.073677,-0.074657,0.000000,-0.261694,-0.244107,-0.000000
1.550000,-1.584507,-0.588983,-1.490237,0.491766,1.301494,-0.013668,0.740558,-0.734750,0.224101,2.301204,-2.451664,0.691387,-0.592942,3.777352,-5.512901,-0.076273,-0.077102,0.000000,-0.257564,-0.243466,0.000000
1.560000,-1.579552,-0.576005,-1.490362,0.499287,1.294024,-0.011394,0.763534,-0.759077,0.230735,2.293519,-2.413435,0.635301,-0.919427,3.865832,-5.675744,-0.078827,-0.079539,0.000000,-0.253275,-0.242412,0.000000
1.570000,-1.574520,-0.563103,-1.490464,0.507037,1.286314,-0.009055,0.786418,-0.783016,0.236802,2.282705,-2.374341,0.577803,-1.242605,3.952757,-5.820963,-0.081338,-0.081964,0.000000,-0.248834,-0.240975,0.000000
1.580000,-1.569410,-0.550279,-1.490543,0.515015,1.278365,-0.006659,0.809177,-0.806561,0.242287,2.268680,-2.334385,0.518941,-1.561672,4.038113,-5.948460,-0.083804,-0.084373,0.000000,-0.244245,-0.239147,-0.000000
1.590000,-1.564219,-0.537536,-1.490597,0.523220,1.270184,-0.004212,0.831781,-0.829701,0.247177,2.251488,-2.293584,0.458893,-1.875825,4.121884,-6.058136,-0.086223,-0.086762,0.000000,-0.239512,-0.236933,0.000000
1.600000,-1.558945,-0.524876,-1.490627,0.531650,1.261773,-0.001718,0.854197,-0.852429,0.251461,2.231183,-2.251953,0.397838,-2.184259,4.204054,-6.149891,-0.088593,-0.089128,0.000000,-0.234639,-0.234341,-0.000000
1.610000,-1.553586,-0.512302,-1.490631,0.540303,1.253137,0.000816,0.876394,-0.874737,0.255130,2.207778,-2.209497,0.335858,-2.484994,4.284326,-6.221178,-0.090915,-0.091466,0.000000,-0.229630,-0.231373,0.000000
1.620000,-1.548138,-0.499814,-1.490611,0.549177,1.244279,0.003383,0.898342,-0.896617,0.258176,2.181454,-2.166259,0.273364,-2.778547,4.363002,-6.274647,-0.093186,-0.093773,0.000000,-0.224494,-0.228053,0.000000
1.630000,-1.542601,-0.487417,-1.490564,0.558269,1.235206,0.005977,0.920013,-0.918060,0.260595,2.152234,-2.122242,0.210424,-3.064258,4.440100,-6.310496,-0.095404,-0.096046,0.000000,-0.219237,-0.224384,0.000000
1.640000,-1.536972,-0.475111,-1.490491,0.567576,1.225920,0.008592,0.941378,-0.939059,0.262384,2.120198,-2.077462,0.147213,-3.341467,4.515638,-6.328927,-0.097570,-0.098281,0.000000,-0.213863,-0.220380,-0.000000
1.650000,-1.531249,-0.462899,-1.490392,0.577095,1.216426,0.011223,0.962408,-0.959607,0.263539,2.085435,-2.031935,0.083903,-3.609514,4.589637,-6.330140,-0.099681,-0.100474,0.000000,-0.208379,-0.216053,-0.000000
1.660000,-1.525430,-0.450783,-1.490266,0.586823,1.206729,0.013861,0.983077,-0.979695,0.264061,2.047973,-1.985673,0.020596,-3.866042,4.662068,-6.312550,-0.101737,-0.102622,0.000000,-0.202790,-0.211408,0.000000
1.670000,-1.519512,-0.438765,-1.490115,0.596755,1.196834,0.016502,1.003359,-0.999318,0.263952,2.008073,-1.938696,-0.042372,-4.112296,4.733003,-6.278362,-0.103737,-0.104723,0.000000,-0.197106,-0.206480,0.000000
1.680000,-1.513494,-0.426847,-1.489936,0.606889,1.186744,0.019138,1.023230,-1.018467,0.263215,1.965763,-1.891018,-0.104918,-4.347824,4.802466,-6.227994,-0.105679,-0.106773,0.000000,-0.191331,-0.201276,0.000000
1.690000,-1.507373,-0.415031,-1.489732,0.617219,1.176466,0.021764,1.042667,-1.037136,0.261856,1.921153,-1.842652,-0.166880,-4.572173,4.870482,-6.161866,-0.107563,-0.108770,0.000000,-0.185473,-0.195812,-0.000000
1.700000,-1.501149,-0.403318,-1.489501,0.627741,1.166003,0.024373,1.061646,-1.055318,0.259880,1.874358,-1.793613,-0.228104,-4.784893,4.937075,-6.080397,-0.109388,-0.110711,0.000000,-0.179537,-0.190104,0.000000
1.710000,-1.494818,-0.391711,-1.489244,0.638450,1.155361,0.026960,1.080146,-1.073006,0.257296,1.825414,-1.743921,-0.288479,-4.983468,5.002418,-5.982972,-0.111154,-0.112594,0.000000,-0.173531,-0.184161,0.000000
1.720000,-1.488379,-0.380212,-1.488962,0.649342,1.144545,0.029517,1.098148,-1.090194,0.254114,1.774638,-1.693576,-0.347761,-5.169762,5.066369,-5.871170,-0.112859,-0.114417,0.000000,-0.167460,-0.178023,-0.000000
1.730000,-1.481831,-0.368821,-1.488654,0.660411,1.133559,0.032040,1.115633,-1.106875,0.250345,1.722060,-1.642598,-0.405856,-5.343573,5.128937,-5.745538,-0.114503,-0.116177,0.000000,-0.161332,-0.171698,-0.000000
1.740000,-1.475170,-0.357541,-1.488321,0.671653,1.122409,0.034522,1.132584,-1.123044,0.246001,1.667808,-1.591001,-0.462628,-5.504702,5.190127,-5.606622,-0.116085,-0.117873,0.000000,-0.155152,-0.165204,0.000000
1.750000,-1.468397,-0.346373,-1.487964,0.683061,1.111100,0.036958,1.148984,-1.138693,0.241097,1.612009,-1.538800,-0.517946,-5.652950,5.249947,-5.454968,-0.117605,-0.119503,0.000000,-0.148926,-0.158559,-0.000000
1.760000,-1.461509,-0.335320,-1.487582,0.694631,1.099637,0.039342,1.164818,-1.153818,0.235647,1.554709,-1.486018,-0.571700,-5.786000,5.308693,-5.290771,-0.119063,-0.121065,0.000000,-0.142663,-0.151774,0.000000
1.770000,-1.454504,-0.324381,-1.487177,0.706355,1.088025,0.041669,1.180074,-1.168412,0.229669,1.496238,-1.432644,-0.623739,-5.906027,5.366046,-5.114971,-0.120459,-0.122559,0.000000,-0.136364,-0.144887,-0.000000
1.780000,-1.447381,-0.313560,-1.486749,0.718230,1.076270,0.043934,1.194739,-1.182469,0.223179,1.436632,-1.378702,-0.673963,-6.013092,5.421979,-4.928155,-0.121791,-0.123984,0.000000,-0.130036,-0.137907,-0.000000
1.790000,-1.440139,-0.302856,-1.486299,0.730248,1.064378,0.046131,1.208803,-1.195984,0.216196,1.376019,-1.324209,-0.722267,-6.107253,5.476462,-4.730912,-0.123059,-0.125338,0.000000,-0.123686,-0.130852,-0.000000
1.800000,-1.432776,-0.292273,-1.485827,0.742404,1.052353,0.048256,1.222257,-1.208951,0.208740,1.314530,-1.269178,-0.768549,-6.188570,5.529468,-4.523831,-0.124264,-0.126621,0.000000,-0.117319,-0.123740,-0.000000
1.810000,-1.425290,-0.281810,-1.485334,0.754691,1.040201,0.050304,1.235090,-1.221366,0.200832,1.252215,-1.213639,-0.812706,-6.255195,5.581344,-4.307656,-0.125406,-0.127832,0.000000,-0.110940,-0.116580,-0.000000
1.820000,-1.417681,-0.271469,-1.484821,0.767104,1.027927,0.052271,1.247299,-1.233222,0.192493,1.189382,-1.157573,-0.854666,-6.309328,5.631640,-4.082801,-0.126483,-0.128971,0.000000,-0.104552,-0.109407,-0.000000
1.830000,-1.409948,-0.261252,-1.484289,0.779635,1.015538,0.054153,1.258876,-1.244516,0.183746,1.126069,-1.101012,-0.894335,-6.351262,5.680280,-3.849836,-0.127497,-0.130037,0.000000,-0.098160,-0.102230,0.000000
1.840000,-1.402088,-0.251159,-1.483738,0.792279,1.003039,0.055945,1.269819,-1.255241,0.174615,1.062397,-1.043973,-0.931637,-6.381290,5.727188,-3.609329,-0.128446,-0.131032,0.000000,-0.091769,-0.095063,-0.000000
1.850000,-1.394102,-0.241191,-1.483170,0.805029,0.990435,0.057644,1.280124,-1.265394,0.165122,0.998482,-0.986474,-0.966499,-6.399706,5.772291,-3.361851,-0.129332,-0.131955,0.000000,-0.085383,-0.087922,0.000000
1.860000,-1.385987,-0.231350,-1.482586,0.817880,0.977733,0.059246,1.289788,-1.274969,0.155293,0.934381,-0.928550,-0.998836,-6.405295,5.815925,-3.108392,-0.130154,-0.132805,0.000000,-0.079008,-0.080815,-0.000000
1.870000,-1.377744,-0.221637,-1.481986,0.830823,0.964938,0.060749,1.298811,-1.283963,0.145154,0.870345,-0.870181,-1.028628,-6.400042,5.857553,-2.849048,-0.130912,-0.133585,0.000000,-0.072645,-0.073770,-0.000000
1.880000,-1.369371,-0.212052,-1.481371,0.843854,0.952055,0.062148,1.307195,-1.292371,0.134729,0.806414,-0.811406,-1.055799,-6.384424,5.897050,-2.584338,-0.131607,-0.134294,0.000000,-0.066297,-0.066792,0.000000
1.890000,-1.360867,-0.202596,-1.480743,0.856965,0.939092,0.063443,1.314940,-1.300190,0.124047,0.742690,-0.752247,-1.080299,-6.358918,5.934292,-2.314780,-0.132238,-0.134933,0.000000,-0.059970,-0.059895,0.000000
1.900000,-1.352231,-0.193270,-1.480103,0.870150,0.926054,0.064629,1.322050,-1.307415,0.113132,0.679267,-0.692728,-1.102081,-6.324000,5.969151,-2.040890,-0.132806,-0.135502,0.000000,-0.053667,-0.053088,-0.000000
1.910000,-1.343463,-0.184075,-1.479451,0.883404,0.912946,0.065705,1.328526,-1.314044,0.102014,0.616200,-0.632888,-1.121086,-6.279155,6.001883,-1.763633,-0.133312,-0.136004,0.000000,-0.047393,-0.046379,-0.000000
1.920000,-1.334563,-0.175011,-1.478789,0.896719,0.899775,0.066668,1.334375,-1.320072,0.090720,0.553668,-0.572716,-1.137322,-6.225975,6.031937,-1.483026,-0.133754,-0.136439,0.000000,-0.041146,-0.039785,-0.000000
1.930000,-1.325529,-0.166080,-1.478118,0.910089,0.886546,0.067518,1.339602,-1.325497,0.079277,0.491706,-0.512259,-1.150737,-6.165060,6.059142,-1.199533,-0.134135,-0.136807,0.000000,-0.034933,-0.033312,0.000000
1.940000,-1.316361,-0.157281,-1.477439,0.923509,0.873267,0.068253,1.344212,-1.330316,0.067715,0.430390,-0.451544,-1.161305,-6.097008,6.083325,-0.913618,-0.134453,-0.137111,0.000000,-0.028755,-0.026967,-0.000000
1.950000,-1.307059,-0.148615,-1.476753,0.936971,0.859942,0.068872,1.348212,-1.334527,0.056061,0.369788,-0.390603,-1.169003,-6.022419,6.104315,-0.625744,-0.134710,-0.137352,0.000000,-0.022617,-0.020756,-0.000000
1.960000,-1.297621,-0.140082,-1.476062,0.950471,0.846578,0.069374,1.351610,-1.338128,0.044344,0.309944,-0.329475,-1.173804,-5.941450,6.122106,-0.336648,-0.134906,-0.137531,0.000000,-0.016522,-0.014684,-0.000000
1.970000,-1.288049,-0.131683,-1.475366,0.964002,0.833182,0.069759,1.354414,-1.341116,0.032594,0.250957,-0.268180,-1.175720,-5.855196,6.136341,-0.046486,-0.135041,-0.137649,0.000000,-0.010472,-0.008759,0.000000
1.980000,-1.278341,-0.123418,-1.474667,0.977557,0.819758,0.070026,1.356632,-1.343491,0.020840,0.192856,-0.206761,-1.174732,-5.764310,6.146827,0.244311,-0.135115,-0.137708,0.000000,-0.004468,-0.002985,0.000000
1.990000,-1.268498,-0.115288,-1.473966,0.991132,0.806314,0.070176,1.358274,-1.345251,0.009109,0.135684,-0.145256,-1.170833,-5.669444,6.153374,0.535312,-0.135130,-0.137710,0.000000,0.001484,0.002636,-0.000000
2.000000,-1.258519,-0.107292,-1.473264,1.004721,0.792855,0.070209,1.359349,-1.346396,-0.002567,0.079478,-0.083707,-1.164026,-5.571252,6.155790,0.826087,-0.135086,-0.137655,0.000000,0.007383,0.008102,-0.000000
2.010000,-1.248403,-0.099431,-1.472562,1.018317,0.779388,0.070125,1.359867,-1.346925,-0.014161,0.024272,-0.022146,-1.154314,-5.470482,6.153666,1.116222,-0.134983,-0.137547,0.000000,0.013226,0.013411,-0.000000
2.020000,-1.238152,-0.091704,-1.471862,1.031916,0.765919,0.069926,1.359838,-1.346839,-0.025644,-0.029921,0.039361,-1.141706,-5.367681,6.147054,1.405268,-0.134821,-0.137385,0.000000,0.019008,0.018563,0.000000
2.030000,-1.227765,-0.084113,-1.471164,1.045512,0.752453,0.069613,1.359272,-1.346138,-0.036986,-0.083077,0.100779,-1.126214,-5.263489,6.135787,1.692795,-0.134603,-0.137172,0.000000,0.024729,0.023557,0.000000
2.040000,-1.217242,-0.076655,-1.470470,1.059100,0.738998,0.069187,1.358179,-1.344824,-0.048159,-0.135188,0.162061,-1.107857,-5.158549,6.119702,1.978369,-0.134327,-0.136910,0.000000,0.030384,0.028394,-0.000000
2.050000,-1.206583,-0.069333,-1.469781,1.072674,0.725559,0.068650,1.356571,-1.342898,-0.059134,-0.186248,0.223157,-1.086655,-5.053501,6.098632,2.261560,-0.133995,-0.136600,0.000000,0.035971,0.033077,-0.000000
2.060000,-1.195789,-0.062144,-1.469097,1.086230,0.712142,0.068005,1.354458,-1.340361,-0.069883,-0.236239,0.284026,-1.062648,-4.949521,6.072151,2.542256,-0.133608,-0.136243,0.000000,0.041489,0.037605,-0.000000
2.070000,-1.184859,-0.055090,-1.468421,1.099762,0.698754,0.067253,1.351850,-1.337218,-0.080377,-0.285218,0.344594,-1.035835,-4.846652,6.040387,2.819665,-0.133166,-0.135842,0.000000,0.046932,0.041987,0.000000
2.080000,-1.173793,-0.048169,-1.467753,1.113265,0.685400,0.066398,1.348757,-1.333471,-0.090590,-0.333177,0.404816,-1.006267,-4.745468,6.003207,3.093314,-0.132669,-0.135397,0.000000,0.052298,0.046223,0.000000
2.090000,-1.162593,-0.041381,-1.467093,1.126735,0.672086,0.065442,1.345190,-1.329123,-0.100494,-0.380135,0.464639,-0.973983,-4.646545,5.960476,3.362733,-0.132120,-0.134909,0.000000,0.057585,0.050319,0.000000
2.100000,-1.151259,-0.034727,-1.466444,1.140167,0.658819,0.064389,1.341158,-1.324179,-0.110061,-0.426118,0.524007,-0.939028,-4.550461,5.912063,3.627448,-0.131518,-0.134382,0.000000,0.062790,0.054279,0.000000
2.110000,-1.139790,-0.028205,-1.465806,1.153557,0.645605,0.063242,1.336671,-1.318645,-0.119266,-0.471121,0.582865,-0.901473,-4.458664,5.857729,3.887545,-0.130864,-0.133815,0.000000,0.067912,0.058107,0.000000
2.120000,-1.128188,-0.021815,-1.465180,1.166899,0.632448,0.062005,1.331738,-1.312524,-0.128082,-0.515265,0.641146,-0.861321,-4.370750,5.797459,4.141929,-0.130160,-0.133210,0.000000,0.072944,0.061815,0.000000
2.130000,-1.116452,-0.015556,-1.464566,1.180190,0.619356,0.060682,1.326369,-1.305824,-0.136484,-0.558551,0.698794,-0.818655,-4.287187,5.731131,4.390058,-0.129406,-0.132568,0.000000,0.077886,0.065407,-0.000000
2.140000,-1.104584,-0.009427,-1.463966,1.193425,0.606334,0.059277,1.320570,-1.298550,-0.144447,-0.601025,0.755748,-0.773542,-4.208444,5.658624,4.631394,-0.128603,-0.131891,0.000000,0.082735,0.068890,-0.000000
2.150000,-1.092584,-0.003429,-1.463381,1.206600,0.593387,0.057795,1.314351,-1.290711,-0.151947,-0.642737,0.811946,-0.726052,-4.134990,5.579817,4.865397,-0.127751,-0.131179,0.000000,0.087488,0.072273,-0.000000
2.160000,-1.080452,0.002441,-1.462810,1.219711,0.580521,0.056240,1.307718,-1.282314,-0.158960,-0.683697,0.867332,-0.676286,-4.068461,5.494368,5.092159,-0.126853,-0.130434,0.000000,0.092143,0.075559,0.000000
2.170000,-1.068190,0.008182,-1.462256,1.232753,0.567742,0.054617,1.300679,-1.273368,-0.165465,-0.724074,0.921821,-0.624265,-4.008015,5.402406,5.310431,-0.125909,-0.129656,0.000000,0.096695,0.078767,-0.000000
2.180000,-1.055798,0.013796,-1.461718,1.245723,0.555056,0.052932,1.293239,-1.263881,-0.171438,-0.763879,0.975358,-0.570107,-3.953979,5.303836,5.519596,-0.124920,-0.128847,0.000000,0.101142,0.081901,-0.000000
2.190000,-1.043276,0.019283,-1.461198,1.258617,0.542467,0.051190,1.285403,-1.253864,-0.176860,-0.803177,1.027876,-0.513906,-3.906679,5.198567,5.719037,-0.123886,-0.128006,0.000000,0.105481,0.084972,0.000000
2.200000,-1.030626,0.024645,-1.460695,1.271430,0.529980,0.049397,1.277177,-1.243327,-0.181710,-0.842036,1.079307,-0.455761,-3.866440,5.086504,5.908136,-0.122810,-0.127134,0.000000,0.109708,0.087988,0.000000
2.210000,-1.017848,0.029883,-1.460210,1.284159,0.517602,0.047558,1.268564,-1.232281,-0.185969,-0.880479,1.129660,-0.395799,-3.834872,4.965601,6.086766,-0.121693,-0.126233,0.000000,0.113830,0.090955,0.000000
2.220000,-1.004943,0.034998,-1.459744,1.296800,0.505336,0.045680,1.259568,-1.220738,-0.189620,-0.918701,1.178684,-0.334086,-3.810861,4.837957,6.253761,-0.120534,-0.125302,0.000000,0.117824,0.093895,-0.000000
2.230000,-0.991912,0.039990,-1.459296,1.309349,0.493189,0.043768,1.250191,-1.208711,-0.192646,-0.956722,1.226397,-0.270765,-3.794575,4.703717,6.408442,-0.119336,-0.124341,0.000000,0.121696,0.096813,-0.000000
2.240000,-0.978756,0.044862,-1.458868,1.321802,0.481164,0.041829,1.240434,-1.196215,-0.195031,-0.994619,1.272736,-0.205961,-3.786183,4.563029,6.550135,-0.118101,-0.123352,0.000000,0.125442,0.099721,0.000000
2.250000,-0.965476,0.049614,-1.458460,1.334156,0.469266,0.039869,1.230298,-1.183262,-0.196761,-1.032473,1.317637,-0.139808,-3.785855,4.416037,6.678160,-0.116828,-0.122333,0.000000,0.129062,0.102629,-0.000000
2.260000,-0.952073,0.054248,-1.458071,1.346407,0.457500,0.037896,1.219785,-1.169867,-0.197823,-1.070283,1.361020,-0.072448,-3.795786,4.263318,6.791906,-0.115520,-0.121285,0.000000,0.132549,0.105540,-0.000000
2.270000,-0.938548,0.058765,-1.457702,1.358551,0.445870,0.035915,1.208892,-1.156046,-0.198206,-1.108325,1.402864,-0.004022,-3.813870,4.104534,6.890622,-0.114178,-0.120208,0.000000,0.135906,0.108486,0.000000
2.280000,-0.924903,0.063166,-1.457353,1.370584,0.434380,0.033934,1.197618,-1.141815,-0.197900,-1.146588,1.443090,0.065312,-3.840026,3.939780,6.973626,-0.112802,-0.119101,0.000000,0.139128,0.111468,0.000000
2.290000,-0.911137,0.067453,-1.457023,1.382502,0.423035,0.031960,1.185960,-1.127190,-0.196897,-1.185152,1.481640,0.135395,-3.874175,3.769148,7.040232,-0.111395,-0.117964,0.000000,0.142213,0.114498,-0.000000
2.300000,-0.897253,0.071627,-1.456714,1.394302,0.411838,0.029999,1.173914,-1.112188,-0.195190,-1.224098,1.518454,0.206060,-3.916238,3.592732,7.089754,-0.109958,-0.116796,0.000000,0.145157,0.117587,-0.000000
2.310000,-0.883251,0.075690,-1.456423,1.405979,0.400792,0.028058,1.161477,-1.096827,-0.192774,-1.263430,1.553501,0.277157,-3.967967,3.409982,7.120860,-0.108493,-0.115598,0.000000,0.147961,0.120739,-0.000000
2.320000,-0.869134,0.079643,-1.456152,1.417530,0.389902,0.026145,1.148643,-1.081124,-0.189646,-1.303400,1.586664,0.348445,-4.027226,3.221713,7.133593,-0.107000,-0.114367,0.000000,0.150617,0.123983,-0.000000
2.330000,-0.854901,0.083488,-1.455900,1.428950,0.379171,0.024268,1.135407,-1.065100,-0.185805,-1.343999,1.617917,0.419766,-4.093711,3.028098,7.127347,-0.105481,-0.113104,0.000000,0.153123,0.127323,-0.000000
2.340000,-0.840555,0.087227,-1.455667,1.440237,0.368601,0.022432,1.121761,-1.048773,-0.181252,-1.385298,1.647209,0.490926,-4.167118,2.829308,7.101518,-0.103938,-0.111806,0.000000,0.155479,0.130768,-0.000000
2.350000,-0.826097,0.090861,-1.455451,1.451384,0.358196,0.020645,1.107698,-1.032162,-0.175988,-1.427363,1.674487,0.561729,-4.247143,2.625516,7.055500,-0.102372,-0.110474,0.000000,0.157680,0.134328,-0.000000
2.360000,-0.811528,0.094392,-1.455254,1.462389,0.347959,0.018914,1.093212,-1.015288,-0.170018,-1.470190,1.699854,0.632032,-4.335285,2.413074,6.987056,-0.100785,-0.109105,0.000000,0.159738,0.138008,-0.000000
2.370000,-0.796850,0.097821,-1.455073,1.473247,0.337891,0.017247,1.078291,-0.998172,-0.163350,-1.514008,1.722905,0.701472,-4.429217,2.196441,6.897412,-0.099178,-0.107699,0.000000,0.161618,0.141834,0.000000
2.380000,-0.782064,0.101150,-1.454909,1.483953,0.327996,0.015650,1.062928,-0.980837,-0.155992,-1.558792,1.743771,0.769908,-4.528414,1.976259,6.786163,-0.097553,-0.106254,0.000000,0.163332,0.145808,-0.000000
2.390000,-0.767171,0.104381,-1.454760,1.494504,0.318275,0.014129,1.047112,-0.963304,-0.147956,-1.604592,1.762420,0.837122,-4.632351,1.753165,6.652904,-0.095912,-0.104768,0.000000,0.164878,0.149939,0.000000
2.400000,-0.752174,0.107516,-1.454626,1.504894,0.308731,0.012693,1.030833,-0.945596,-0.139255,-1.651453,1.778827,0.902891,-4.740503,1.527801,6.497229,-0.094256,-0.103241,0.000000,0.166256,0.154234,0.000000
2.410000,-0.737074,0.110556,-1.454506,1.515119,0.299364,0.011346,1.014080,-0.927735,-0.129902,-1.699315,1.792987,0.967101,-4.854855,1.300397,6.315927,-0.092587,-0.101669,0.000000,0.167464,0.158691,0.000000
2.420000,-0.721872,0.113504,-1.454398,1.525174,0.290176,0.010097,0.996843,-0.909744,-0.119919,-1.748448,1.804850,1.029259,-4.972066,1.072052,6.111743,-0.090907,-0.100053,0.000000,0.168500,0.163343,0.000000
2.430000,-0.706571,0.116361,-1.454303,1.535054,0.281169,0.008950,0.979108,-0.891646,-0.109324,-1.798763,1.814427,1.089260,-5.091304,0.843457,5.884613,-0.089218,-0.098388,0.000000,0.169364,0.168183,-0.000000
2.440000,-0.691172,0.119128,-1.454219,1.544755,0.272344,0.007912,0.960863,-0.873463,-0.098142,-1.850278,1.821721,1.146874,-5.211736,0.615301,5.634477,-0.087520,-0.096675,0.000000,0.170057,0.173217,0.000000
2.450000,-0.675676,0.121808,-1.454145,1.554270,0.263700,0.006989,0.942098,-0.855219,-0.086396,-1.902999,1.826737,1.201872,-5.332533,0.388275,5.361272,-0.085817,-0.094910,0.000000,0.170578,0.178449,0.000000
2.460000,-0.660087,0.124403,-1.454079,1.563595,0.255239,0.006186,0.922800,-0.836936,-0.074112,-1.956854,1.829499,1.254178,-5.454704,0.162895,5.061010,-0.084109,-0.093092,0.000000,0.170928,0.183872,-0.000000
2.470000,-0.644405,0.126914,-1.454020,1.572724,0.246962,0.005508,0.902957,-0.818636,-0.061323,-2.012006,1.830011,1.303192,-5.575349,-0.059955,4.738036,-0.082399,-0.091219,0.000000,0.171109,0.189511,-0.000000
2.480000,-0.628633,0.129342,-1.453968,1.581652,0.238867,0.004961,0.882556,-0.800343,-0.048059,-2.068352,1.828311,1.348865,-5.693410,-0.279562,4.392769,-0.080688,-0.089288,0.000000,0.171123,0.195355,0.000000
2.490000,-0.612773,0.131691,-1.453921,1.590373,0.230955,0.004549,0.861586,-0.782078,-0.034357,-2.125862,1.824433,1.390975,-5.807830,-0.495215,4.025630,-0.078977,-0.087298,0.000000,0.170969,0.201404,-0.000000
2.500000,-0.596826,0.133962,-1.453877,1.598882,0.223225,0.004275,0.840035,-0.763861,-0.020252,-2.184493,1.818422,1.429306,-5.917550,-0.706202,3.637036,-0.077269,-0.085247,0.000000,0.170652,0.207654,0.000000
2.510000,-0.580796,0.136157,-1.453835,1.607172,0.215677,0.004145,0.817893,-0.745716,-0.005782,-2.244163,1.810352,1.463831,-6.022290,-0.912442,3.222713,-0.075565,-0.083132,0.000000,0.170175,0.214098,-0.000000
2.520000,-0.564684,0.138276,-1.453793,1.615238,0.208310,0.004161,0.795148,-0.727661,0.009010,-2.304881,1.800222,1.493903,-6.120119,-1.112517,2.788349,-0.073866,-0.080952,0.000000,0.169539,0.220742,-0.000000
2.530000,-0.548492,0.140323,-1.453751,1.623073,0.201124,0.004326,0.771792,-0.709718,0.024081,-2.366539,1.788125,1.519535,-6.209887,-1.305638,2.334937,-0.072174,-0.078705,0.000000,0.168749,0.227571,-0.000000
2.540000,-0.532223,0.142299,-1.453706,1.630671,0.194116,0.004643,0.747815,-0.691905,0.039385,-2.429048,1.774135,1.540541,-6.290439,-1.491017,1.863473,-0.070491,-0.076388,0.000000,0.167809,0.234578,0.000000
2.550000,-0.515879,0.144206,-1.453658,1.638027,0.187285,0.005114,0.723209,-0.674241,0.054876,-2.492313,1.758333,1.556747,-6.360625,-1.667866,1.374949,-0.068819,-0.074001,0.000000,0.166724,0.241751,-0.000000
2.560000,-0.499463,0.146046,-1.453604,1.645133,0.180630,0.005741,0.697966,-0.656744,0.070506,-2.556250,1.740781,1.568178,-6.418591,-1.834692,0.865528,-0.067157,-0.071541,0.000000,0.165496,0.249079,0.000000
2.570000,-0.482977,0.147819,-1.453542,1.651984,0.174150,0.006525,0.672082,-0.639431,0.086222,-2.620674,1.721641,1.574225,-6.463970,-1.991496,0.341628,-0.065509,-0.069008,0.000000,0.164140,0.256543,0.000000
2.580000,-0.466424,0.149529,-1.453473,1.658573,0.167841,0.007466,0.645551,-0.622317,0.101973,-2.685484,1.700987,1.574968,-6.495696,-2.137578,-0.195167,-0.063875,-0.066399,0.000000,0.162660,0.264127,0.000000
2.590000,-0.449807,0.151177,-1.453393,1.664893,0.161702,0.008564,0.618371,-0.605416,0.117703,-2.750539,1.678928,1.570284,-6.512700,-2.272236,-0.743271,-0.062256,-0.063714,0.000000,0.161063,0.271813,-0.000000
2.600000,-0.433128,0.152764,-1.453301,1.670938,0.155732,0.009819,0.590540,-0.588742,0.133360,-2.815685,1.655582,1.560070,-6.513917,-2.394766,-1.301099,-0.060654,-0.060952,0.000000,0.159356,0.279580,-0.000000
2.610000,-0.416389,0.154292,-1.453196,1.676702,0.149927,0.011231,0.562057,-0.572309,0.148888,-2.880857,1.631006,1.544399,-6.495848,-2.502728,-1.871205,-0.059070,-0.058112,0.000000,0.157542,0.287414,0.000000
2.620000,-0.399594,0.155763,-1.453076,1.682177,0.144285,0.012796,0.532924,-0.556126,0.164229,-2.945652,1.605494,1.522810,-6.460155,-2.597371,-2.447358,-0.057504,-0.055193,0.000000,0.155647,0.295269,-0.000000
2.630000,-0.382747,0.157178,-1.452939,1.687358,0.138803,0.014514,0.503145,-0.540202,0.179325,-3.009999,1.579105,1.495439,-6.406068,-2.678208,-3.027464,-0.055957,-0.052197,0.000000,0.153674,0.303127,0.000000
2.640000,-0.365848,0.158540,-1.452785,1.692238,0.133480,0.016382,0.472726,-0.524546,0.194118,-3.073710,1.551978,1.462255,-6.332820,-2.744748,-3.609430,-0.054430,-0.049121,0.000000,0.151633,0.310960,-0.000000
2.650000,-0.348903,0.159848,-1.452611,1.696811,0.128312,0.018396,0.441674,-0.509164,0.208550,-3.136589,1.524259,1.423251,-6.239640,-2.796503,-4.191164,-0.052924,-0.045968,0.000000,0.149535,0.318738,-0.000000
2.660000,-0.331913,0.161106,-1.452416,1.701069,0.123296,0.020552,0.409996,-0.494063,0.222565,-3.198599,1.495988,1.378537,-6.121586,-2.830196,-4.773036,-0.051440,-0.042738,0.000000,0.147381,0.326445,0.000000
2.670000,-0.314882,0.162315,-1.452200,1.705008,0.118429,0.022845,0.377706,-0.479245,0.236102,-3.259137,1.467582,1.327916,-5.982573,-2.848467,-5.350189,-0.049977,-0.039431,0.000000,0.145210,0.334009,-0.000000
2.680000,-0.297814,0.163475,-1.451959,1.708622,0.113710,0.025272,0.344818,-0.464712,0.249104,-3.318179,1.439071,1.271557,-5.822343,-2.851168,-5.920230,-0.048536,-0.036050,0.000000,0.143022,0.341414,-0.000000
2.690000,-0.280711,0.164589,-1.451694,1.711903,0.109134,0.027825,0.311348,-0.450464,0.261514,-3.375512,1.410611,1.209543,-5.640639,-2.838151,-6.480764,-0.047117,-0.032596,0.000000,0.140830,0.348624,0.000000
2.700000,-0.263577,0.165659,-1.451402,1.714847,0.104700,0.030500,0.277314,-0.436499,0.273276,-3.430920,1.382361,1.141981,-5.437202,-2.809269,-7.029399,-0.045719,-0.029070,0.000000,0.138648,0.355604,0.000000
2.710000,-0.246415,0.166684,-1.451083,1.717447,0.100403,0.033289,0.242735,-0.422817,0.284336,-3.484403,1.354338,1.068996,-5.206217,-2.760819,-7.563573,-0.044344,-0.025477,0.000000,0.136473,0.362339,-0.000000
2.720000,-0.229229,0.167667,-1.450736,1.719700,0.096242,0.036184,0.207634,-0.409411,0.294639,-3.535220,1.327038,0.990758,-4.953663,-2.696643,-8.081079,-0.042990,-0.021818,0.000000,0.134356,0.368739,-0.000000
2.730000,-0.212023,0.168609,-1.450359,1.721598,0.092214,0.039179,0.172039,-0.396274,0.304134,-3.583406,1.300457,0.907438,-4.679963,-2.617030,-8.579545,-0.041656,-0.018096,0.000000,0.132292,0.374792,0.000000
2.740000,-0.194799,0.169512,-1.449952,1.723139,0.088316,0.042264,0.135976,-0.383399,0.312771,-3.628750,1.274748,0.819238,-4.385539,-2.522266,-9.056596,-0.040343,-0.014316,0.000000,0.130295,0.380462,-0.000000
2.750000,-0.177561,0.170376,-1.449514,1.724317,0.084545,0.045431,0.099474,-0.370775,0.320503,-3.671049,1.250061,0.726385,-4.070813,-2.412640,-9.509859,-0.039050,-0.010482,0.000000,0.128379,0.385715,0.000000
2.760000,-0.160313,0.171203,-1.449043,1.725127,0.080900,0.048671,0.062563,-0.358395,0.327283,-3.710334,1.226397,0.628996,-3.730320,-2.284725,-9.933607,-0.037776,-0.006598,0.000000,0.126542,0.390540,0.000000
2.770000,-0.143060,0.171994,-1.448540,1.725567,0.077377,0.051973,0.025279,-0.346243,0.333069,-3.745856,1.204247,0.527657,-3.371091,-2.142978,-10.329232,-0.036519,-0.002667,0.000000,0.124832,0.394846,0.000000
2.780000,-0.125803,0.172751,-1.448004,1.725632,0.073974,0.055329,-0.012342,-0.334305,0.337823,-3.777697,1.183581,0.422511,-2.994269,-1.988140,-10.694769,-0.035279,0.001303,0.000000,0.123244,0.398630,0.000000
2.790000,-0.108548,0.173474,-1.447433,1.725319,0.070690,0.058726,-0.050262,-0.322566,0.341508,-3.805686,1.164526,0.313869,-2.600996,-1.820953,-11.028257,-0.034054,0.005308,0.000000,0.121790,0.401863,0.000000
2.800000,-0.091298,0.174165,-1.446829,1.724625,0.067522,0.062155,-0.088442,-0.311009,0.344090,-3.829666,1.147201,0.202059,-2.192417,-1.642160,-11.327732,-0.032842,0.009343,0.000000,0.120480,0.404520,-0.000000
2.810000,-0.074057,0.174825,-1.446190,1.723549,0.064469,0.065604,-0.126843,-0.299618,0.345537,-3.849680,1.131563,0.087186,-1.764817,-1.448578,-11.584983,-0.031644,0.013401,0.000000,0.119310,0.406598,0.000000
2.820000,-0.056829,0.175455,-1.445517,1.722088,0.061530,0.069062,-0.165421,-0.288371,0.345826,-3.865137,1.118086,-0.029795,-1.324792,-1.245355,-11.805061,-0.030456,0.017477,0.000000,0.118324,0.408028,-0.000000
2.830000,-0.039617,0.176056,-1.444809,1.720240,0.058702,0.072517,-0.204131,-0.277249,0.344934,-3.876140,1.106684,-0.148787,-0.874078,-1.033713,-11.986769,-0.029277,0.021563,0.000000,0.117514,0.408816,0.000000
2.840000,-0.022425,0.176629,-1.444067,1.718005,0.055984,0.075957,-0.242929,-0.266230,0.342845,-3.882589,1.097436,-0.269399,-0.414416,-0.814876,-12.128908,-0.028105,0.025655,0.000000,0.116885,0.408950,-0.000000
2.850000,-0.005258,0.177176,-1.443290,1.715382,0.053377,0.079370,-0.281768,-0.255293,0.339542,-3.884404,1.090406,-0.391229,0.052459,-0.590066,-12.230283,-0.026938,0.029743,0.000000,0.116443,0.408421,0.000000
2.860000,0.011881,0.177697,-1.442479,1.712370,0.050878,0.082744,-0.320601,-0.244414,0.335014,-3.881541,1.085683,-0.514181,0.525282,-0.361344,-12.281692,-0.025775,0.033824,0.000000,0.116196,0.407224,0.000000
2.870000,0.028988,0.178194,-1.441635,1.708970,0.048488,0.086066,-0.359383,-0.233571,0.329258,-3.873908,1.083229,-0.637080,1.001782,-0.128993,-12.290921,-0.024614,0.037888,0.000000,0.116136,0.405355,0.000000
2.880000,0.046059,0.178667,-1.440758,1.705183,0.046207,0.089325,-0.398064,-0.222742,0.322273,-3.861499,1.083112,-0.759858,1.480164,0.105868,-12.257751,-0.023452,0.041931,0.000000,0.116270,0.402819,0.000000
2.890000,0.063091,0.179119,-1.439849,1.701009,0.044033,0.092508,-0.436597,-0.211901,0.314062,-3.844304,1.085351,-0.882093,1.958631,0.342119,-12.181964,-0.022288,0.045945,0.000000,0.116598,0.399622,-0.000000
2.900000,0.080078,0.179548,-1.438908,1.696451,0.041969,0.095602,-0.474934,-0.201027,0.304634,-3.822332,1.089955,-1.003355,2.435388,0.578638,-12.063342,-0.021119,0.049923,0.000000,0.117120,0.395773,-0.000000
2.910000,0.097018,0.179958,-1.437937,1.691511,0.040013,0.098596,-0.513027,-0.190095,0.293996,-3.795580,1.096847,-1.123536,2.907927,0.816172,-11.893574,-0.019945,0.053860,0.000000,0.117825,0.391282,0.000000
2.920000,0.113907,0.180349,-1.436937,1.686192,0.038167,0.101478,-0.550830,-0.179082,0.282170,-3.764159,1.106188,-1.241447,3.375250,1.051506,-11.681527,-0.018762,0.057748,0.000000,0.118729,0.386178,0.000000
2.930000,0.130741,0.180722,-1.435908,1.680496,0.036432,0.104236,-0.588295,-0.167964,0.269175,-3.728098,1.117865,-1.357029,3.835648,1.283292,-11.427974,-0.017570,0.061583,0.000000,0.119819,0.380476,0.000000
2.940000,0.147516,0.181078,-1.434853,1.674427,0.034808,0.106858,-0.625376,-0.156717,0.255038,-3.687475,1.131837,-1.469870,4.287411,1.510181,-11.133688,-0.016365,0.065357,0.000000,0.121089,0.374201,-0.000000
2.950000,0.164228,0.181419,-1.433772,1.667990,0.033298,0.109333,-0.662029,-0.145319,0.239788,-3.642384,1.148048,-1.579569,4.728830,1.730825,-10.799441,-0.015147,0.069066,0.000000,0.122532,0.367378,0.000000
2.960000,0.180875,0.181744,-1.432667,1.661188,0.031903,0.111650,-0.698208,-0.133749,0.223456,-3.592792,1.166448,-1.686007,5.154490,1.943377,-10.418982,-0.013914,0.072704,0.000000,0.124142,0.360021,0.000000
2.970000,0.197451,0.182057,-1.431539,1.654027,0.030624,0.113799,-0.733871,-0.121983,0.206082,-3.539173,1.186908,-1.788137,5.566842,2.147048,-10.000970,-0.012664,0.076266,0.000000,0.125905,0.352201,0.000000
2.980000,0.213954,0.182357,-1.430391,1.646512,0.029464,0.115768,-0.768978,-0.110004,0.187708,-3.481503,1.209355,-1.885906,5.964630,2.340549,-9.547038,-0.011395,0.079747,0.000000,0.127813,0.343934,-0.000000
2.990000,0.230380,0.182647,-1.429224,1.638650,0.028424,0.117550,-0.803488,-0.097790,0.168379,-3.419933,1.233681,-1.978964,6.346599,2.522594,-9.058819,-0.010107,0.083143,0.000000,0.129855,0.335255,-0.000000
3.000000,0.246726,0.182926,-1.428041,1.630445,0.027509,0.119133,-0.837364,-0.085324,0.148145,-3.354628,1.259765,-2.066974,6.711492,2.691893,-8.537947,-0.008798,0.086451,0.000000,0.132019,0.326200,0.000000
3.010000,0.262988,0.183197,-1.426842,1.621904,0.026719,0.120510,-0.870566,-0.072587,0.127055,-3.285494,1.287724,-2.149820,7.051223,2.840799,-7.980989,-0.007466,0.089666,0.000000,0.134317,0.316777,0.000000
3.020000,0.279163,0.183461,-1.425631,1.613036,0.026058,0.121671,-0.903063,-0.059565,0.105168,-3.213361,1.316816,-2.226724,7.372205,2.975163,-7.395266,-0.006111,0.092786,0.000000,0.136675,0.307094,-0.000000
3.030000,0.295247,0.183719,-1.424410,1.603846,0.025528,0.122611,-0.934823,-0.046246,0.082541,-3.138114,1.347177,-2.297637,7.674018,3.094477,-6.783031,-0.004732,0.095807,0.000000,0.139107,0.297157,0.000000
3.040000,0.311239,0.183972,-1.423180,1.594342,0.025134,0.123320,-0.965816,-0.032618,0.059236,-3.059946,1.378654,-2.362304,7.956243,3.198233,-6.146537,-0.003329,0.098728,0.000000,0.141600,0.287002,-0.000000
3.050000,0.327133,0.184222,-1.421944,1.584532,0.024877,0.123793,-0.996013,-0.018670,0.035316,-2.979056,1.411088,-2.420494,8.218463,3.285921,-5.488040,-0.001900,0.101547,0.000000,0.144141,0.276667,0.000000
3.060000,0.342928,0.184470,-1.420705,1.574424,0.024762,0.124025,-1.025386,-0.004392,0.010847,-2.895451,1.444433,-2.472095,8.455369,3.354096,-4.807371,-0.000446,0.104261,0.000000,0.146728,0.266167,0.000000
3.070000,0.358621,0.184718,-1.419464,1.564027,0.024790,0.124009,-1.053914,0.010221,-0.014103,-2.809798,1.478246,-2.516692,8.672029,3.405546,-4.109502,0.001034,0.106870,0.000000,0.149319,0.255587,-0.000000
3.080000,0.374208,0.184966,-1.418225,1.553349,0.024967,0.123741,-1.081575,0.025174,-0.039463,-2.722078,1.512488,-2.554236,8.868623,3.440122,-3.396983,0.002541,0.109372,0.000000,0.151915,0.244937,-0.000000
3.090000,0.389687,0.185217,-1.416990,1.542398,0.025295,0.123218,-1.108350,0.040471,-0.065163,-2.632492,1.546991,-2.584592,9.045331,3.457676,-2.672365,0.004073,0.111768,0.000000,0.154502,0.234249,-0.000000
3.100000,0.405055,0.185473,-1.415762,1.531185,0.025778,0.122437,-1.134220,0.056114,-0.091131,-2.541237,1.581584,-2.607651,9.202331,3.458057,-1.938199,0.005631,0.114057,0.000000,0.157068,0.223554,0.000000
3.110000,0.420310,0.185734,-1.414543,1.519717,0.026418,0.121395,-1.159168,0.072105,-0.117292,-2.448330,1.616248,-2.623328,9.335255,3.437244,-1.197129,0.007214,0.116239,0.000000,0.159616,0.212862,-0.000000
3.120000,0.435448,0.186002,-1.413335,1.508005,0.027221,0.120091,-1.183182,0.088438,-0.143572,-2.354391,1.650446,-2.631575,9.449389,3.399435,-0.451600,0.008823,0.118315,0.000000,0.162098,0.202244,0.000000
3.130000,0.450469,0.186279,-1.412142,1.496057,0.028188,0.118523,-1.206252,0.105112,-0.169898,-2.259402,1.684181,-2.632354,9.545468,3.344957,0.295851,0.010456,0.120285,0.000000,0.164520,0.191703,0.000000
3.140000,0.465369,0.186566,-1.410965,1.483883,0.029324,0.116693,-1.228367,0.122120,-0.196195,-2.163540,1.717290,-2.625660,9.624230,3.274134,1.042685,0.012113,0.122150,0.000000,0.166871,0.181262,-0.000000
3.150000,0.480146,0.186866,-1.409809,1.471492,0.030632,0.114600,-1.249520,0.139455,-0.222387,-2.066973,1.749611,-2.611511,9.686412,3.187292,1.786364,0.013793,0.123911,0.000000,0.169143,0.170941,-0.000000
3.160000,0.494798,0.187179,-1.408674,1.458895,0.032114,0.112246,-1.269704,0.157110,-0.248399,-1.969750,1.781120,-2.589865,9.729873,3.081315,2.522153,0.015496,0.125569,0.000000,0.171338,0.160747,0.000000
3.170000,0.509323,0.187508,-1.407565,1.446102,0.033775,0.109633,-1.288914,0.175074,-0.274160,-1.872296,1.811341,-2.560996,9.758579,2.960391,3.249978,0.017219,0.127126,0.000000,0.173416,0.150722,0.000000
3.180000,0.523719,0.187855,-1.406482,1.433120,0.035617,0.106764,-1.307149,0.193333,-0.299595,-1.774624,1.840281,-2.524899,9.773620,2.825268,3.967569,0.018964,0.128584,0.000000,0.175385,0.140865,-0.000000
3.190000,0.537985,0.188221,-1.405430,1.419962,0.037643,0.103642,-1.324406,0.211875,-0.324634,-1.676866,1.867801,-2.481687,9.776084,2.676691,4.672657,0.020727,0.129945,0.000000,0.177237,0.131190,-0.000000
3.200000,0.552118,0.188609,-1.404410,1.406636,0.039855,0.100272,-1.340686,0.230684,-0.349205,-1.579141,1.893772,-2.431495,9.767060,2.515407,5.362973,0.022508,0.131209,0.000000,0.178967,0.121703,-0.000000
3.210000,0.566117,0.189019,-1.403426,1.393151,0.042257,0.096660,-1.355989,0.249745,-0.373239,-1.481531,1.918157,-2.374340,9.746930,2.339952,6.032601,0.024306,0.132380,0.000000,0.180577,0.112413,-0.000000
3.220000,0.579981,0.189455,-1.402478,1.379519,0.044851,0.092810,-1.370318,0.269041,-0.396670,-1.384201,1.940633,-2.310743,9.717577,2.153555,6.683364,0.026119,0.133459,0.000000,0.182042,0.103324,-0.000000
3.230000,0.593707,0.189917,-1.401570,1.365748,0.047639,0.088729,-1.383674,0.288552,-0.419433,-1.287206,1.961195,-2.240741,9.680177,1.957233,7.313437,0.027946,0.134448,0.000000,0.183367,0.094439,-0.000000
3.240000,0.607295,0.190408,-1.400704,1.351849,0.050622,0.084423,-1.396063,0.308258,-0.441464,-1.190621,1.979748,-2.164550,9.635907,1.752005,7.920998,0.029786,0.135349,0.000000,0.184549,0.085758,-0.000000
3.250000,0.620744,0.190930,-1.399882,1.337830,0.053804,0.079902,-1.407488,0.328140,-0.462704,-1.094507,1.996209,-2.082403,9.585941,1.538888,8.504222,0.031637,0.136165,0.000000,0.185587,0.077281,0.000000
3.260000,0.634051,0.191485,-1.399107,1.323702,0.057186,0.075172,-1.417956,0.348175,-0.483092,-0.998973,2.010533,-1.994378,9.532875,1.318150,9.056874,0.033497,0.136896,0.000000,0.186480,0.069012,-0.000000
3.270000,0.647217,0.192074,-1.398380,1.309474,0.060768,0.070243,-1.427470,0.368343,-0.502574,-0.903925,2.022586,-1.901159,9.476292,1.091650,9.582083,0.035366,0.137546,0.000000,0.187220,0.060928,-0.000000
3.280000,0.660241,0.192701,-1.397703,1.295156,0.064553,0.065124,-1.436036,0.388619,-0.521098,-0.809456,2.032350,-1.802832,9.417194,0.860498,10.078568,0.037241,0.138116,0.000000,0.187811,0.053033,-0.000000
3.290000,0.673120,0.193366,-1.397078,1.280757,0.068541,0.059824,-1.443661,0.408982,-0.538614,-0.715586,2.039784,-1.699688,9.356581,0.625804,10.545044,0.039121,0.138608,0.000000,0.188252,0.045318,0.000000
3.300000,0.685855,0.194072,-1.396507,1.266286,0.072733,0.054355,-1.450350,0.429407,-0.555076,-0.622326,2.044858,-1.592035,9.295457,0.388677,10.980230,0.041006,0.139024,0.000000,0.188544,0.037776,0.000000
3.310000,0.698446,0.194821,-1.395991,1.251753,0.077129,0.048726,-1.456111,0.449871,-0.570439,-0.529800,2.047526,-1.480008,9.237964,0.150919,11.378202,0.042892,0.139365,0.000000,0.188686,0.030411,-0.000000
3.320000,0.710890,0.195616,-1.395533,1.237167,0.081730,0.042950,-1.460948,0.470350,-0.584664,-0.437703,2.047845,-1.364375,9.181578,-0.087137,11.742886,0.044779,0.139633,0.000000,0.188685,0.023179,0.000000
3.330000,0.723189,0.196457,-1.395133,1.222537,0.086536,0.037037,-1.464867,0.490820,-0.597715,-0.346162,2.045786,-1.245264,9.126916,-0.324467,12.073566,0.046665,0.139830,0.000000,0.188541,0.016083,-0.000000
3.340000,0.735341,0.197347,-1.394792,1.207872,0.091547,0.031000,-1.467873,0.511258,-0.609559,-0.255157,2.041361,-1.123019,9.074598,-0.560047,12.369528,0.048549,0.139956,0.000000,0.188257,0.009113,-0.000000
3.350000,0.747346,0.198288,-1.394513,1.193183,0.096761,0.024850,-1.469971,0.531639,-0.620166,-0.164660,2.034594,-0.997992,9.025239,-0.792851,12.630057,0.050430,0.140012,0.000000,0.187835,0.002254,-0.000000
3.360000,0.759205,0.199283,-1.394296,1.178476,0.102179,0.018601,-1.471169,0.551941,-0.629509,-0.074806,2.025442,-0.870359,8.983636,-1.019960,12.849905,0.052305,0.140001,0.000000,0.187274,-0.004488,-0.000000
3.370000,0.770916,0.200333,-1.394141,1.163762,0.107800,0.012264,-1.471469,0.572141,-0.637566,0.014838,2.014126,-0.740912,8.945715,-1.242477,13.033445,0.054175,0.139923,0.000000,0.186591,-0.011170,0.000000
3.380000,0.782480,0.201439,-1.394051,1.149050,0.113622,0.005854,-1.470874,0.592216,-0.644321,0.104121,2.000610,-0.609812,8.911584,-1.459608,13.180518,0.056037,0.139778,0.000000,0.185784,-0.017786,0.000000
3.390000,0.793897,0.202606,-1.394024,1.134348,0.119644,-0.000618,-1.469388,0.612146,-0.649758,0.193083,1.984954,-0.477424,8.881347,-1.670563,13.290964,0.057890,0.139567,0.000000,0.184858,-0.024349,0.000000
3.400000,0.805167,0.203833,-1.394063,1.119665,0.125864,-0.007137,-1.467013,0.631908,-0.653867,0.281762,1.967222,-0.344115,8.855111,-1.874547,13.364622,0.059734,0.139290,0.000000,0.183816,-0.030875,-0.000000
3.410000,0.816290,0.205124,-1.394167,1.105010,0.132281,-0.013691,-1.463755,0.651482,-0.656637,0.370025,1.947382,-0.210085,8.837365,-2.068067,13.397049,0.061566,0.138948,0.000000,0.182654,-0.037357,0.000000
3.420000,0.827267,0.206479,-1.394337,1.090393,0.138893,-0.020265,-1.459613,0.670850,-0.658068,0.458325,1.925768,-0.076105,8.823294,-2.253363,13.392895,0.063386,0.138542,0.000000,0.181400,-0.043854,0.000000
3.430000,0.838098,0.207902,-1.394573,1.075821,0.145697,-0.026848,-1.454589,0.689992,-0.658160,0.546502,1.902344,0.057652,8.812467,-2.429973,13.352523,0.065194,0.138070,0.000000,0.180047,-0.050359,0.000000
3.440000,0.848784,0.209394,-1.394874,1.061304,0.152692,-0.033424,-1.448683,0.708891,-0.656917,0.634584,1.877199,0.190826,8.804453,-2.597436,13.276300,0.066987,0.137532,0.000000,0.178601,-0.056884,0.000000
3.450000,0.859324,0.210957,-1.395241,1.046850,0.159874,-0.039982,-1.441897,0.727530,-0.654346,0.722599,1.850427,0.323060,8.798820,-2.755289,13.164589,0.068765,0.136929,0.000000,0.177066,-0.063442,-0.000000
3.460000,0.869721,0.212592,-1.395674,1.032469,0.167242,-0.046507,-1.434233,0.745893,-0.650458,0.810419,1.822007,0.454159,8.798877,-2.900046,13.013764,0.070528,0.136260,0.000000,0.175437,-0.070027,0.000000
3.470000,0.879974,0.214302,-1.396171,1.018169,0.174791,-0.052987,-1.425689,0.763966,-0.645269,0.898413,1.792325,0.583399,8.799996,-3.034641,12.828670,0.072274,0.135525,0.000000,0.173744,-0.076690,0.000000
3.480000,0.890085,0.216088,-1.396733,1.003958,0.182520,-0.059408,-1.416265,0.781735,-0.638797,0.986420,1.761348,0.710621,8.801287,-3.158982,12.610162,0.074002,0.134722,0.000000,0.171979,-0.083421,0.000000
3.490000,0.900054,0.217953,-1.397359,0.989846,0.190425,-0.065758,-1.405961,0.799189,-0.631064,1.074436,1.729180,0.835494,8.801863,-3.272980,12.359093,0.075713,0.133852,0.000000,0.170147,-0.090230,-0.000000
3.500000,0.909882,0.219897,-1.398048,0.975842,0.198503,-0.072025,-1.394776,0.816315,-0.622096,1.162451,1.695923,0.957697,8.800835,-3.376542,12.076317,0.077405,0.132912,0.000000,0.168252,-0.097123,-0.000000
3.510000,0.919571,0.221924,-1.398799,0.961954,0.206750,-0.078196,-1.382713,0.833103,-0.611919,1.250352,1.661571,1.077061,8.799659,-3.466723,11.759053,0.079078,0.131903,0.000000,0.166289,-0.104098,-0.000000
3.520000,0.929121,0.224033,-1.399612,0.948191,0.215164,-0.084260,-1.369769,0.849544,-0.600566,1.338328,1.626496,1.192942,8.794813,-3.546635,11.412234,0.080731,0.130823,0.000000,0.164283,-0.111183,-0.000000
3.530000,0.938535,0.226227,-1.400484,0.934561,0.223740,-0.090204,-1.355946,0.865630,-0.588072,1.426232,1.590671,1.305212,8.785122,-3.616539,11.037161,0.082363,0.129672,0.000000,0.162228,-0.118372,0.000000
3.540000,0.947813,0.228508,-1.401415,0.921075,0.232475,-0.096017,-1.341245,0.881355,-0.574475,1.514010,1.554197,1.413595,8.769409,-3.676691,10.635133,0.083975,0.128448,0.000000,0.160127,-0.125666,0.000000
3.550000,0.956957,0.230877,-1.402404,0.907739,0.241366,-0.101690,-1.325667,0.896712,-0.559814,1.601596,1.517169,1.517829,8.746499,-3.727352,10.207449,0.085566,0.127149,0.000000,0.157982,-0.133065,0.000000
3.560000,0.965968,0.233336,-1.403448,0.894564,0.250408,-0.107210,-1.309214,0.911696,-0.544131,1.688895,1.479592,1.617786,8.715637,-3.766533,9.752311,0.087135,0.125776,0.000000,0.155789,-0.140566,0.000000
3.570000,0.974849,0.235886,-1.404547,0.881558,0.259598,-0.112569,-1.291890,0.926303,-0.527474,1.775858,1.441767,1.712938,8.675173,-3.797015,9.274494,0.088681,0.124327,0.000000,0.153566,-0.148173,-0.000000
3.580000,0.983600,0.238529,-1.405699,0.868729,0.268933,-0.117757,-1.273699,0.940530,-0.509889,1.862363,1.403679,1.803205,8.623880,-3.819330,8.775677,0.090206,0.122801,0.000000,0.151307,-0.155877,0.000000
3.590000,0.992224,0.241265,-1.406902,0.856087,0.278408,-0.122764,-1.254645,0.954376,-0.491427,1.948295,1.365406,1.888387,8.560531,-3.834012,8.257537,0.091707,0.121196,0.000000,0.149012,-0.163674,-0.000000
3.600000,1.000723,0.244097,-1.408154,0.843639,0.288019,-0.127582,-1.234735,0.967838,-0.472139,2.033529,1.327022,1.968297,8.483897,-3.841595,7.721752,0.093186,0.119513,0.000000,0.146683,-0.171553,-0.000000
3.610000,1.009098,0.247026,-1.409453,0.831395,0.297763,-0.132204,-1.213976,0.980916,-0.452078,2.117994,1.288545,2.042857,8.391019,-3.841308,7.167782,0.094641,0.117750,0.000000,0.144315,-0.179511,0.000000
3.620000,1.017351,0.250053,-1.410797,0.819362,0.307636,-0.136622,-1.192378,0.993609,-0.431300,2.201375,1.250158,2.111705,8.282614,-3.835149,6.599795,0.096072,0.115907,0.000000,0.141918,-0.187521,0.000000
3.630000,1.025486,0.253179,-1.412185,0.807550,0.317634,-0.140828,-1.169953,1.005919,-0.409863,2.283591,1.211859,2.174812,8.157665,-3.823811,6.019742,0.097479,0.113982,0.000000,0.139485,-0.195577,0.000000
3.640000,1.033503,0.256406,-1.413613,0.795966,0.327753,-0.144817,-1.146711,1.017847,-0.387823,2.364470,1.173696,2.232067,8.015157,-3.807987,5.429574,0.098862,0.111976,0.000000,0.137016,-0.203661,-0.000000
3.650000,1.041406,0.259735,-1.415080,0.784619,0.337990,-0.148583,-1.122668,1.029394,-0.365241,2.443832,1.135712,2.283377,7.854075,-3.788371,4.831240,0.100219,0.109889,0.000000,0.134508,-0.211756,-0.000000
3.660000,1.049196,0.263166,-1.416584,0.773515,0.348340,-0.152120,-1.097839,1.040562,-0.342176,2.521635,1.097932,2.328707,7.669640,-3.765472,4.225783,0.101552,0.107720,0.000000,0.131960,-0.219856,-0.000000
3.670000,1.056877,0.266702,-1.418122,0.762664,0.358800,-0.155425,-1.072242,1.051353,-0.318687,2.597326,1.060402,2.367919,7.465060,-3.740190,3.616172,0.102858,0.105469,0.000000,0.129368,-0.227905,0.000000
3.680000,1.064450,0.270343,-1.419692,0.752073,0.369366,-0.158493,-1.045899,1.061771,-0.294838,2.670867,1.023134,2.401023,7.239780,-3.713241,3.004468,0.104139,0.103138,0.000000,0.126730,-0.235896,0.000000
3.690000,1.071919,0.274089,-1.421291,0.741749,0.380034,-0.161320,-1.018833,1.071817,-0.270687,2.742050,0.986140,2.428008,6.993245,-3.685339,2.392732,0.105393,0.100726,0.000000,0.124041,-0.243803,-0.000000
3.700000,1.079286,0.277944,-1.422917,0.731699,0.390801,-0.163906,-0.991067,1.081494,-0.246298,2.810659,0.949428,2.448884,6.724901,-3.657200,1.783026,0.106620,0.098235,0.000000,0.121298,-0.251599,-0.000000
3.710000,1.086554,0.281906,-1.424568,0.721930,0.401663,-0.166246,-0.962626,1.090807,-0.221730,2.876684,0.913032,2.463650,6.428873,-3.630482,1.178228,0.107819,0.095665,0.000000,0.118500,-0.259277,0.000000
3.720000,1.093726,0.285977,-1.426241,0.712448,0.412616,-0.168340,-0.933543,1.099756,-0.197045,2.939400,0.876857,2.472433,6.110577,-3.604843,0.579483,0.108989,0.093019,0.000000,0.115635,-0.266757,-0.000000
3.730000,1.100804,0.290158,-1.427934,0.703261,0.423656,-0.170187,-0.903849,1.108344,-0.172301,2.998822,0.840930,2.475266,5.770109,-3.580885,-0.011250,0.110131,0.090299,0.000000,0.112701,-0.274031,0.000000
3.740000,1.107792,0.294451,-1.429644,0.694373,0.434781,-0.171786,-0.873579,1.116575,-0.147559,3.054729,0.805231,2.472241,5.407568,-3.559208,-0.592008,0.111243,0.087506,0.000000,0.109693,-0.281069,0.000000
3.750000,1.114693,0.298854,-1.431369,0.685791,0.445987,-0.173138,-0.842767,1.124450,-0.122876,3.106900,0.769736,2.463466,5.023048,-3.540412,-1.160831,0.112325,0.084644,0.000000,0.106608,-0.287836,0.000000
3.760000,1.121509,0.303370,-1.433106,0.677519,0.457269,-0.174244,-0.811451,1.131971,-0.098310,3.155374,0.734478,2.448962,4.610156,-3.526793,-1.713004,0.113375,0.081714,0.000000,0.103444,-0.294327,0.000000
3.770000,1.128244,0.308000,-1.434853,0.669563,0.468625,-0.175105,-0.779674,1.139140,-0.073915,3.199323,0.699263,2.429135,4.176274,-3.517049,-2.249655,0.114393,0.078720,0.000000,0.100184,-0.300445,0.000000
3.780000,1.134901,0.312743,-1.436608,0.661927,0.480051,-0.175723,-0.747479,1.145957,-0.049745,3.238832,0.664123,2.404026,3.722294,-3.511575,-2.769162,0.115379,0.075666,0.000000,0.096829,-0.306185,0.000000
3.790000,1.141484,0.317601,-1.438367,0.654615,0.491543,-0.176100,-0.714913,1.152422,-0.025851,3.273705,0.629016,2.373814,3.249107,-3.510762,-3.269901,0.116330,0.072557,0.000000,0.093375,-0.311515,0.000000
3.800000,1.147995,0.322574,-1.440129,0.647630,0.503098,-0.176241,-0.682021,1.158537,-0.002285,3.303753,0.593891,2.338696,2.757604,-3.515004,-3.750247,0.117246,0.069395,0.000000,0.089815,-0.316403,0.000000
3.810000,1.154437,0.327663,-1.441891,0.640976,0.514712,-0.176147,-0.648852,1.164302,0.020905,3.328983,0.558844,2.298700,2.244020,-3.528387,-4.203968,0.118126,0.066186,0.000000,0.086160,-0.320835,-0.000000
3.820000,1.160815,0.332869,-1.443651,0.634654,0.526383,-0.175824,-0.615459,1.169713,0.043675,3.348788,0.523470,2.254487,1.714475,-3.547160,-4.634613,0.118968,0.062935,0.000000,0.082373,-0.324733,0.000000
3.830000,1.167132,0.338191,-1.445407,0.628667,0.538106,-0.175275,-0.581894,1.174770,0.065981,3.363224,0.487883,2.206088,1.170429,-3.571263,-5.041122,0.119773,0.059647,0.000000,0.078467,-0.328091,0.000000
3.840000,1.173390,0.343631,-1.447156,0.623016,0.549877,-0.174506,-0.548213,1.179470,0.087783,3.372154,0.452027,2.153749,0.613345,-3.600638,-5.422436,0.120537,0.056328,0.000000,0.074437,-0.330881,0.000000
3.850000,1.179593,0.349189,-1.448896,0.617703,0.561694,-0.173522,-0.514470,1.183810,0.109044,3.375453,0.415852,2.097727,0.044684,-3.635224,-5.777495,0.121261,0.052983,0.000000,0.070282,-0.333075,0.000000
3.860000,1.185745,0.354865,-1.450625,0.612727,0.573552,-0.172327,-0.480721,1.187786,0.129724,3.373149,0.379354,2.038053,-0.537519,-3.676175,-6.099261,0.121943,0.049619,0.000000,0.066002,-0.334665,-0.000000
3.870000,1.191849,0.360660,-1.452342,0.608088,0.585448,-0.170929,-0.447027,1.191395,0.149794,3.364828,0.342367,1.975567,-1.127956,-3.722072,-6.393385,0.122581,0.046242,0.000000,0.061591,-0.335594,-0.000000
3.880000,1.197908,0.366574,-1.454043,0.603786,0.597379,-0.169333,-0.413445,1.194632,0.169226,3.350569,0.304896,1.910279,-1.724743,-3.772708,-6.659539,0.123174,0.042859,0.000000,0.057050,-0.335858,-0.000000
3.890000,1.203925,0.372608,-1.455728,0.599819,0.609340,-0.167547,-0.380035,1.197491,0.187992,3.330318,0.266897,1.842471,-2.326000,-3.827875,-6.897396,0.123721,0.039476,0.000000,0.052379,-0.335441,-0.000000
3.900000,1.209905,0.378761,-1.457394,0.596185,0.621327,-0.165576,-0.346858,1.199968,0.206068,3.304040,0.228325,1.772426,-2.929844,-3.887365,-7.106628,0.124221,0.036101,0.000000,0.047580,-0.334329,0.000000
3.910000,1.215850,0.385034,-1.459039,0.592880,0.633338,-0.163428,-0.313970,1.202055,0.223431,3.272127,0.189075,1.700177,-3.544707,-3.949422,-7.280414,0.124672,0.032739,0.000000,0.042644,-0.332555,0.000000
3.920000,1.221764,0.391428,-1.460662,0.589904,0.645367,-0.161110,-0.281436,1.203747,0.240066,3.233615,0.149253,1.626623,-4.157131,-4.015577,-7.425716,0.125074,0.029400,0.000000,0.037595,-0.330009,-0.000000
3.930000,1.227649,0.397942,-1.462261,0.587250,0.657411,-0.158629,-0.249318,1.205038,0.255959,3.189003,0.108750,1.551756,-4.763971,-4.085814,-7.543000,0.125424,0.026090,0.000000,0.032425,-0.326736,-0.000000
3.940000,1.233510,0.404576,-1.463834,0.584916,0.669466,-0.155993,-0.217676,1.205920,0.271098,3.138365,0.067523,1.475855,-5.362083,-4.160116,-7.632735,0.125722,0.022816,0.000000,0.027136,-0.322739,0.000000
3.950000,1.239349,0.411331,-1.465380,0.582895,0.681528,-0.153209,-0.186571,1.206386,0.285473,3.081801,0.025534,1.399192,-5.948322,-4.238464,-7.695389,0.125966,0.019586,0.000000,0.021731,-0.318024,0.000000
3.960000,1.245169,0.418207,-1.466897,0.581183,0.693593,-0.150286,-0.156063,1.206430,0.299077,3.019133,-0.017066,1.321805,-6.511578,-4.325712,-7.725594,0.126156,0.016407,0.000000,0.016227,-0.312569,0.000000
3.970000,1.250973,0.425203,-1.468385,0.579772,0.705655,-0.147230,-0.126207,1.206042,0.311909,2.951271,-0.060774,1.244505,-7.057648,-4.416376,-7.730366,0.126290,0.013287,0.000000,0.010588,-0.306467,-0.000000
3.980000,1.256765,0.432320,-1.469842,0.578656,0.717712,-0.144050,-0.097056,1.205212,0.323968,2.878044,-0.105403,1.167279,-7.584361,-4.509842,-7.710889,0.126368,0.010231,0.000000,0.004837,-0.299699,-0.000000
3.990000,1.262548,0.439557,-1.471266,0.577828,0.729758,-0.140754,-0.068663,1.203930,0.335256,2.799656,-0.150978,1.090364,-8.089550,-4.605497,-7.668344,0.126387,0.007247,0.000000,-0.001024,-0.292287,0.000000
4.000000,1.268323,0.446915,-1.472656,0.577280,0.741789,-0.137348,-0.041079,1.202189,0.345777,2.716332,-0.197519,1.013985,-8.571043,-4.702725,-7.603912,0.126347,0.004340,0.000000,-0.006990,-0.284256,0.000000
4.010000,1.274094,0.454393,-1.474012,0.577004,0.753800,-0.133841,-0.014360,1.199979,0.355536,2.627554,-0.244848,0.938226,-9.007290,-4.805677,-7.515541,0.126247,0.001519,0.000000,-0.013039,-0.275555,-0.000000
4.020000,1.279864,0.461991,-1.475333,0.576990,0.765787,-0.130240,0.011458,1.197288,0.364545,2.535407,-0.293419,0.863593,-9.417877,-4.908393,-7.408044,0.126086,-0.001213,0.000000,-0.019208,-0.266405,-0.000000
4.030000,1.285635,0.469708,-1.476617,0.577230,0.777744,-0.126552,0.036335,1.194107,0.372812,2.439281,-0.343011,0.790124,-9.803008,-5.009675,-7.283000,0.125862,-0.003850,0.000000,-0.025471,-0.256747,0.000000
4.040000,1.291409,0.477546,-1.477864,0.577714,0.789668,-0.122786,0.060231,1.190425,0.380351,2.339431,-0.393603,0.717986,-10.162887,-5.108327,-7.141986,0.125576,-0.006387,0.000000,-0.031821,-0.246612,-0.000000
4.050000,1.297190,0.485502,-1.479072,0.578431,0.801551,-0.118947,0.083112,1.186232,0.387177,2.236107,-0.445164,0.647332,-10.497718,-5.203153,-6.986580,0.125226,-0.008820,0.000000,-0.038251,-0.236032,0.000000
4.060000,1.302979,0.493576,-1.480242,0.579372,0.813391,-0.115044,0.104945,1.181515,0.393304,2.129816,-0.497977,0.578296,-10.814191,-5.284685,-6.818314,0.124810,-0.011144,0.000000,-0.044786,-0.225066,-0.000000
4.070000,1.308778,0.501769,-1.481373,0.580526,0.825180,-0.111084,0.125698,1.176270,0.398748,2.020197,-0.551210,0.511001,-11.105230,-5.361009,-6.638820,0.124330,-0.013355,0.000000,-0.051336,-0.213682,-0.000000
4.080000,1.314590,0.510080,-1.482464,0.581882,0.836914,-0.107072,0.145340,1.170488,0.403530,1.907798,-0.605179,0.445551,-11.370245,-5.431940,-6.449680,0.123783,-0.015450,0.000000,-0.057930,-0.201944,0.000000
4.090000,1.320416,0.518507,-1.483514,0.583429,0.848588,-0.103015,0.163846,1.164164,0.407666,1.792881,-0.659830,0.382034,-11.608646,-5.497295,-6.252479,0.123171,-0.017424,0.000000,-0.064560,-0.189885,0.000000
4.100000,1.326259,0.527051,-1.484524,0.585156,0.860196,-0.098921,0.181190,1.157290,0.411177,1.675716,-0.715106,0.320523,-11.819843,-5.556889,-6.048801,0.122492,-0.019276,0.000000,-0.071217,-0.177541,-0.000000
4.110000,1.332120,0.535711,-1.485493,0.587049,0.871732,-0.094794,0.197353,1.149859,0.414084,1.556525,-0.771058,0.261160,-12.001934,-5.607756,-5.842392,0.121746,-0.021001,0.000000,-0.077905,-0.164940,0.000000
4.120000,1.338000,0.544486,-1.486420,0.589099,0.883191,-0.090641,0.212315,1.141867,0.416407,1.435713,-0.827366,0.203784,-12.155801,-5.652833,-5.632409,0.120934,-0.022598,0.000000,-0.084590,-0.152132,0.000000
4.130000,1.343902,0.553375,-1.487305,0.591292,0.894567,-0.086467,0.226062,1.133310,0.418167,1.313505,-0.884096,0.148520,-12.281015,-5.692278,-5.420172,0.120055,-0.024065,0.000000,-0.091278,-0.139147,-0.000000
4.140000,1.349827,0.562377,-1.488149,0.593616,0.905855,-0.082279,0.238582,1.124184,0.419385,1.190189,-0.941193,0.095384,-12.377145,-5.726246,-5.207000,0.119108,-0.025401,0.000000,-0.097962,-0.126019,-0.000000
4.150000,1.355775,0.571491,-1.488951,0.596059,0.917049,-0.078082,0.249863,1.114485,0.420082,1.066060,-0.998603,0.044378,-12.443763,-5.754894,-4.994213,0.118095,-0.026603,0.000000,-0.104636,-0.112787,0.000000
4.160000,1.361748,0.580717,-1.489711,0.598609,0.928143,-0.073879,0.259896,1.104212,0.420281,0.940978,-1.056126,-0.004366,-12.469431,-5.782125,-4.786688,0.117016,-0.027672,0.000000,-0.111276,-0.099439,0.000000
4.170000,1.367747,0.590054,-1.490429,0.601253,0.939131,-0.069678,0.268683,1.093362,0.420001,0.816277,-1.114060,-0.051205,-12.466074,-5.803890,-4.581750,0.115870,-0.028606,0.000000,-0.117921,-0.086122,-0.000000
4.180000,1.373774,0.599500,-1.491104,0.603979,0.950008,-0.065481,0.276222,1.081930,0.419264,0.691750,-1.172184,-0.096012,-12.434612,-5.819885,-4.380283,0.114658,-0.029406,0.000000,-0.124543,-0.072818,-0.000000
4.190000,1.379827,0.609054,-1.491738,0.606773,0.960768,-0.061294,0.282519,1.069917,0.418088,0.567675,-1.230438,-0.138825,-12.375964,-5.829807,-4.183171,0.113379,-0.030072,0.000000,-0.131139,-0.059559,-0.000000
4.200000,1.385909,0.618715,-1.492330,0.609625,0.971405,-0.057120,0.287578,1.057322,0.416494,0.444319,-1.288759,-0.179693,-12.291046,-5.833356,-3.991297,0.112035,-0.030605,0.000000,-0.137703,-0.046379,0.000000
4.210000,1.392020,0.628481,-1.492881,0.612521,0.981912,-0.052965,0.291409,1.044141,0.414502,0.321926,-1.347173,-0.218514,-12.180445,-5.827943,-3.809526,0.110625,-0.031006,0.000000,-0.144235,-0.033305,0.000000
4.220000,1.398160,0.638352,-1.493390,0.615449,0.992286,-0.048832,0.294021,1.030378,0.412129,0.200776,-1.405398,-0.255728,-12.045452,-5.815829,-3.634273,0.109150,-0.031276,0.000000,-0.150713,-0.020371,-0.000000
4.230000,1.404329,0.648327,-1.493857,0.618397,1.002518,-0.044724,0.295429,1.016034,0.409393,0.081095,-1.463467,-0.291223,-11.887028,-5.796992,-3.465934,0.107611,-0.031416,0.000000,-0.157140,-0.007601,0.000000
4.240000,1.410528,0.658402,-1.494284,0.621353,1.012604,-0.040645,0.295649,1.001110,0.406310,-0.036890,-1.521315,-0.325071,-11.706132,-5.771409,-3.304908,0.106008,-0.031429,0.000000,-0.163509,0.004977,0.000000
4.250000,1.416756,0.668578,-1.494670,0.624306,1.022538,-0.036599,0.294698,0.985609,0.402897,-0.152956,-1.578873,-0.357346,-11.503723,-5.739056,-3.151588,0.104341,-0.031317,0.000000,-0.169815,0.017338,-0.000000
4.260000,1.423014,0.678853,-1.495016,0.627244,1.032315,-0.032588,0.292596,0.969533,0.399170,-0.266930,-1.636111,-0.387988,-11.279891,-5.698956,-3.009941,0.102612,-0.031081,0.000000,-0.176054,0.029462,0.000000
4.270000,1.429301,0.689224,-1.495322,0.630154,1.041927,-0.028616,0.289367,0.952888,0.395142,-0.378528,-1.692872,-0.417413,-11.036572,-5.652158,-2.876357,0.100820,-0.030725,0.000000,-0.182215,0.041318,0.000000
4.280000,1.435617,0.699691,-1.495589,0.633027,1.051370,-0.024686,0.285034,0.935677,0.390826,-0.487600,-1.749132,-0.445542,-10.774831,-5.598755,-2.750796,0.098968,-0.030252,0.000000,-0.188295,0.052889,-0.000000
4.290000,1.441961,0.710251,-1.495816,0.635851,1.060639,-0.020801,0.279624,0.917907,0.386235,-0.593967,-1.804826,-0.472455,-10.495733,-5.538841,-2.633217,0.097055,-0.029663,0.000000,-0.194288,0.064156,0.000000
4.300000,1.448334,0.720903,-1.496005,0.638616,1.069727,-0.016963,0.273164,0.899583,0.381381,-0.697460,-1.859888,-0.498233,-10.200343,-5.472509,-2.523580,0.095082,-0.028964,0.000000,-0.200187,0.075100,-0.000000
4.310000,1.454733,0.731645,-1.496156,0.641311,1.078629,-0.013174,0.265685,0.880711,0.376275,-0.797934,-1.914270,-0.522849,-9.889447,-5.399475,-2.424481,0.093051,-0.028156,0.000000,-0.205989,0.085703,-0.000000
4.320000,1.461160,0.742475,-1.496269,0.643927,1.087339,-0.009438,0.257216,0.861300,0.370927,-0.895215,-1.967873,-0.546630,-9.564424,-5.320257,-2.332919,0.090963,-0.027243,0.000000,-0.211686,0.095950,0.000000
4.330000,1.467612,0.753391,-1.496345,0.646452,1.095853,-0.005756,0.247791,0.841357,0.365345,-0.989179,-2.020655,-0.569531,-9.226377,-5.234995,-2.248532,0.088818,-0.026230,0.000000,-0.217272,0.105824,0.000000
4.340000,1.474088,0.764391,-1.496384,0.648879,1.104165,-0.002132,0.237444,0.820890,0.359539,-1.079702,-2.072554,-0.591623,-8.876405,-5.143830,-2.170956,0.086618,-0.025120,0.000000,-0.222742,0.115315,-0.000000
4.350000,1.480589,0.775473,-1.496387,0.651198,1.112269,0.001434,0.226209,0.799909,0.353515,-1.166671,-2.123512,-0.612972,-8.515608,-5.046901,-2.099828,0.084363,-0.023917,0.000000,-0.228090,0.124408,0.000000
4.360000,1.487112,0.786636,-1.496355,0.653401,1.120161,0.004938,0.214123,0.778423,0.347282,-1.249966,-2.173478,-0.633582,-8.145495,-4.944209,-2.036260,0.082056,-0.022624,0.000000,-0.233310,0.133091,0.000000
4.370000,1.493656,0.797876,-1.496289,0.655478,1.127836,0.008379,0.201222,0.756443,0.340846,-1.329534,-2.222384,-0.653650,-7.766707,-4.836050,-1.978232,0.079698,-0.021247,0.000000,-0.238396,0.141360,0.000000
4.380000,1.500221,0.809192,-1.496188,0.657423,1.135288,0.011754,0.187545,0.733979,0.334211,-1.405275,-2.270182,-0.673163,-7.380295,-4.722581,-1.925201,0.077289,-0.019789,0.000000,-0.243343,0.149202,0.000000
4.390000,1.506804,0.820581,-1.496054,0.659227,1.142514,0.015062,0.173130,0.711043,0.327384,-1.477118,-2.316819,-0.692169,-6.987310,-4.603960,-1.876623,0.074831,-0.018256,0.000000,-0.248145,0.156612,0.000000
4.400000,1.513405,0.832041,-1.495887,0.660883,1.149508,0.018301,0.158016,0.687647,0.320369,-1.545003,-2.362244,-0.710708,-6.588801,-4.480343,-1.831954,0.072327,-0.016650,0.000000,-0.252796,0.163582,-0.000000
4.410000,1.520021,0.843570,-1.495688,0.662385,1.156265,0.021469,0.142243,0.663802,0.313171,-1.608846,-2.406409,-0.728807,-6.186661,-4.351898,-1.790949,0.069776,-0.014977,0.000000,-0.257291,0.170105,0.000000
4.420000,1.526652,0.855166,-1.495458,0.663726,1.162782,0.024564,0.125852,0.639523,0.305794,-1.668687,-2.449266,-0.746523,-5.780995,-4.218770,-1.752729,0.067181,-0.013241,0.000000,-0.261624,0.176184,-0.000000
4.430000,1.533295,0.866825,-1.495197,0.664900,1.169054,0.027584,0.108883,0.614821,0.298242,-1.724457,-2.490769,-0.763869,-5.372752,-4.081115,-1.716712,0.064544,-0.011447,0.000000,-0.265790,0.181813,0.000000
4.440000,1.539950,0.878546,-1.494906,0.665902,1.175077,0.030528,0.091377,0.589712,0.290518,-1.776136,-2.530874,-0.780863,-4.962877,-3.939089,-1.682319,0.061866,-0.009599,0.000000,-0.269785,0.186991,0.000000
4.450000,1.546613,0.890326,-1.494587,0.666726,1.180847,0.033394,0.073374,0.564209,0.282626,-1.823712,-2.569537,-0.797519,-4.552319,-3.792847,-1.648968,0.059149,-0.007701,0.000000,-0.273602,0.191716,0.000000
4.460000,1.553283,0.902162,-1.494239,0.667367,1.186360,0.036180,0.054917,0.538326,0.274569,-1.867138,-2.606713,-0.813870,-4.143170,-3.642645,-1.615413,0.056395,-0.005759,0.000000,-0.277238,0.195984,0.000000
4.470000,1.559960,0.914052,-1.493863,0.667823,1.191613,0.038885,0.036045,0.512080,0.266350,-1.906528,-2.642372,-0.829857,-3.735093,-3.488527,-1.581821,0.053605,-0.003777,0.000000,-0.280687,0.199807,0.000000
4.480000,1.566639,0.925993,-1.493461,0.668087,1.196601,0.041507,0.016800,0.485484,0.257973,-1.941846,-2.676471,-0.845505,-3.328893,-3.330637,-1.547693,0.050781,-0.001759,0.000000,-0.283946,0.203184,0.000000
4.490000,1.573321,0.937983,-1.493034,0.668158,1.201321,0.044044,-0.002778,0.458555,0.249441,-1.973115,-2.708973,-0.860807,-2.925379,-3.169117,-1.512531,0.047927,0.000291,0.000000,-0.287010,0.206118,0.000000
4.500000,1.580002,0.950019,-1.492581,0.668031,1.205771,0.046495,-0.022649,0.431310,0.240758,-2.000365,-2.739842,-0.875750,-2.525357,-3.004112,-1.475835,0.045042,0.002367,0.000000,-0.289875,0.208612,-0.000000
4.510000,1.586681,0.962098,-1.492104,0.667704,1.209946,0.048859,-0.042772,0.403764,0.231927,-2.023582,-2.769041,-0.890369,-2.130996,-2.835838,-1.435804,0.042130,0.004466,0.000000,-0.292538,0.210666,0.000000
4.520000,1.593355,0.974217,-1.491604,0.667174,1.213845,0.051133,-0.063108,0.375935,0.222952,-2.042941,-2.796545,-0.904517,-1.741575,-2.664356,-1.393401,0.039192,0.006582,0.000000,-0.294995,0.212300,0.000000
4.530000,1.600023,0.986374,-1.491082,0.666441,1.217464,0.053317,-0.083618,0.347839,0.213838,-2.058433,-2.822318,-0.918228,-1.357734,-2.489802,-1.348286,0.036230,0.008713,0.000000,-0.297243,0.213516,-0.000000
4.540000,1.606683,0.998565,-1.490538,0.665502,1.220801,0.055409,-0.104264,0.319494,0.204589,-2.070116,-2.846331,-0.931472,-0.980113,-2.312310,-1.300120,0.033248,0.010854,0.000000,-0.299280,0.214319,0.000000
4.550000,1.613333,1.010789,-1.489974,0.664355,1.223853,0.057409,-0.125008,0.290918,0.195210,-2.078058,-2.868555,-0.944219,-0.609353,-2.132017,-1.248564,0.030246,0.013001,0.000000,-0.301103,0.214720,0.000000
4.560000,1.619970,1.023041,-1.489390,0.663001,1.226619,0.059313,-0.145812,0.262129,0.185705,-2.082271,-2.888962,-0.956495,-0.247546,-1.949062,-1.191673,0.027226,0.015149,0.000000,-0.302710,0.214721,0.000000
4.570000,1.626592,1.035320,-1.488788,0.661439,1.229095,0.061122,-0.166641,0.233145,0.176082,-2.082970,-2.907528,-0.968111,0.106297,-1.763574,-1.130910,0.024192,0.017296,0.000000,-0.304099,0.214347,-0.000000
4.580000,1.633198,1.047622,-1.488168,0.659668,1.231281,0.062834,-0.187460,0.203985,0.166345,-2.080173,-2.924226,-0.979099,0.451715,-1.575687,-1.066130,0.021145,0.019436,0.000000,-0.305269,0.213602,0.000000
4.590000,1.639785,1.059945,-1.487531,0.657690,1.233174,0.064449,-0.208233,0.174667,0.156502,-2.073966,-2.939034,-0.989420,0.788244,-1.385533,-0.997192,0.018087,0.021567,0.000000,-0.306219,0.212496,0.000000
4.600000,1.646351,1.072285,-1.486879,0.655504,1.234774,0.065964,-0.228928,0.145211,0.146559,-2.064439,-2.951929,-0.999029,1.115423,-1.193247,-0.923951,0.015021,0.023686,0.000000,-0.306947,0.211043,0.000000
4.610000,1.652894,1.084639,-1.486213,0.653112,1.236078,0.067380,-0.249511,0.115635,0.136523,-2.051632,-2.962895,-1.007947,1.431331,-0.998896,-0.844677,0.011949,0.025788,0.000000,-0.307454,0.209247,0.000000
4.620000,1.659412,1.097005,-1.485532,0.650514,1.237086,0.068694,-0.269950,0.085959,0.126403,-2.035781,-2.971904,-1.015979,1.737142,-0.802689,-0.761009,0.008873,0.027870,0.000000,-0.307740,0.207136,0.000000
4.630000,1.665904,1.109380,-1.484839,0.647713,1.237797,0.069908,-0.290216,0.056203,0.116207,-2.016924,-2.978943,-1.023152,2.032572,-0.604769,-0.672999,0.005795,0.029929,0.000000,-0.307803,0.204717,0.000000
4.640000,1.672366,1.121760,-1.484134,0.644711,1.238210,0.071018,-0.310279,0.026387,0.105943,-1.995165,-2.983994,-1.029424,2.317337,-0.405275,-0.580699,0.002718,0.031963,0.000000,-0.307646,0.202002,-0.000000
4.650000,1.678797,1.134143,-1.483419,0.641509,1.238325,0.072026,-0.330110,-0.003470,0.095621,-1.970614,-2.987043,-1.034752,2.591152,-0.204352,-0.484160,-0.000357,0.033969,0.000000,-0.307269,0.199006,-0.000000
4.660000,1.685196,1.146526,-1.482694,0.638109,1.238141,0.072931,-0.349682,-0.033347,0.085251,-1.943325,-2.988082,-1.039146,2.852352,-0.002015,-0.382101,-0.003427,0.035942,0.000000,-0.306673,0.195736,0.000000
4.670000,1.691559,1.158905,-1.481961,0.634516,1.237658,0.073731,-0.368968,-0.063225,0.074842,-1.913543,-2.987086,-1.042441,3.102204,0.201452,-0.276070,-0.006490,0.037882,0.000000,-0.305860,0.192221,0.000000
4.680000,1.697885,1.171278,-1.481220,0.630731,1.236876,0.074427,-0.387944,-0.093082,0.064406,-1.881319,-2.984050,-1.044655,3.340593,0.405893,-0.166281,-0.009543,0.039786,0.000000,-0.304830,0.188469,-0.000000
4.690000,1.704173,1.183642,-1.480472,0.626758,1.235796,0.075019,-0.406587,-0.122899,0.053953,-1.846770,-2.978965,-1.045754,3.567405,0.611150,-0.052949,-0.012586,0.041651,0.000000,-0.303587,0.184493,-0.000000
4.700000,1.710420,1.195993,-1.479720,0.622600,1.234418,0.075506,-0.424872,-0.152654,0.043494,-1.810010,-2.971824,-1.045703,3.782523,0.817066,0.063712,-0.015614,0.043476,0.000000,-0.302132,0.180307,-0.000000
4.710000,1.716624,1.208329,-1.478963,0.618262,1.232743,0.075889,-0.442779,-0.182329,0.033042,-1.771110,-2.962628,-1.044507,3.984609,1.023630,0.184415,-0.018628,0.045257,0.000000,-0.300468,0.175922,-0.000000
4.720000,1.722784,1.220647,-1.478202,0.613746,1.230772,0.076167,-0.460288,-0.211900,0.022608,-1.730303,-2.951357,-1.042047,4.174923,1.230521,0.307903,-0.021623,0.046994,0.000000,-0.298597,0.171363,-0.000000
4.730000,1.728899,1.232943,-1.477440,0.609057,1.228506,0.076341,-0.477379,-0.241349,0.012205,-1.687651,-2.938017,-1.038340,4.353500,1.437561,0.433847,-0.024599,0.048685,0.000000,-0.296523,0.166638,0.000000
4.740000,1.734965,1.245216,-1.476676,0.604200,1.225946,0.076412,-0.494035,-0.270654,0.001846,-1.643272,-2.922606,-1.033363,4.520374,1.644576,0.561920,-0.027553,0.050327,0.000000,-0.294248,0.161763,0.000000
4.750000,1.740982,1.257461,-1.475912,0.599178,1.223093,0.076378,-0.510239,-0.299794,-0.008458,-1.597282,-2.905126,-1.027096,4.675582,1.851390,0.691793,-0.030483,0.051921,0.000000,-0.291776,0.156749,0.000000
4.760000,1.746948,1.269677,-1.475149,0.593997,1.219950,0.076243,-0.525976,-0.328749,-0.018692,-1.549759,-2.885585,-1.019541,4.818158,2.057953,0.823606,-0.033388,0.053463,0.000000,-0.289110,0.151607,-0.000000
4.770000,1.752861,1.281859,-1.474387,0.588660,1.216519,0.076005,-0.541230,-0.357499,-0.028844,-1.500913,-2.863975,-1.010641,4.949261,2.263949,0.956505,-0.036265,0.054954,0.000000,-0.286253,0.146360,-0.000000
4.780000,1.758721,1.294006,-1.473629,0.583174,1.212801,0.075666,-0.555990,-0.386022,-0.038901,-1.450812,-2.840308,-1.000408,5.069046,2.469186,1.090103,-0.039112,0.056392,0.000000,-0.283210,0.141015,0.000000
4.790000,1.764524,1.306115,-1.472874,0.577542,1.208799,0.075227,-0.570242,-0.414298,-0.048848,-1.399569,-2.814594,-0.988838,5.177671,2.673475,1.224014,-0.041928,0.057776,0.000000,-0.279983,0.135586,-0.000000
4.800000,1.770271,1.318181,-1.472125,0.571771,1.204516,0.074690,-0.583978,-0.442307,-0.058673,-1.347295,-2.786842,-0.975928,5.275294,2.876623,1.357852,-0.044711,0.059106,0.000000,-0.276577,0.130084,-0.000000
4.810000,1.775959,1.330204,-1.471381,0.565864,1.199954,0.074054,-0.597185,-0.470028,-0.068362,-1.294070,-2.757068,-0.961684,5.361345,3.078503,1.491263,-0.047459,0.060380,0.000000,-0.272996,0.124519,0.000000
4.820000,1.781588,1.342179,-1.470644,0.559829,1.195117,0.073323,-0.609856,-0.497442,-0.077902,-1.240071,-2.725280,-0.946107,5.436797,3.278853,1.623825,-0.050171,0.061599,0.000000,-0.269243,0.118909,0.000000
4.830000,1.787156,1.354105,-1.469915,0.553669,1.190006,0.072497,-0.621984,-0.524527,-0.087280,-1.185369,-2.691497,-0.929211,5.501898,3.477476,1.755148,-0.052844,0.062761,0.000000,-0.265323,0.113261,0.000000
4.840000,1.792661,1.365979,-1.469194,0.547391,1.184627,0.071578,-0.633562,-0.551265,-0.096482,-1.130067,-2.655737,-0.911010,5.556894,3.674173,1.884843,-0.055476,0.063867,0.000000,-0.261239,0.107586,-0.000000
4.850000,1.798103,1.377797,-1.468483,0.541000,1.178982,0.070568,-0.644584,-0.577635,-0.105496,-1.074264,-2.618021,-0.891521,5.602030,3.868745,2.012520,-0.058068,0.064916,0.000000,-0.256996,0.101894,0.000000
4.860000,1.803481,1.389557,-1.467783,0.534501,1.173076,0.069469,-0.655045,-0.603619,-0.114308,-1.018040,-2.578369,-0.870754,5.637112,4.060964,2.137454,-0.060616,0.065909,0.000000,-0.252598,0.096192,-0.000000
4.870000,1.808793,1.401258,-1.467094,0.527901,1.166911,0.068282,-0.664944,-0.629196,-0.122907,-0.961533,-2.536809,-0.848766,5.662882,4.250665,2.259631,-0.063119,0.066844,0.000000,-0.248049,0.090496,0.000000
4.880000,1.814038,1.412895,-1.466418,0.521204,1.160493,0.067011,-0.674275,-0.654349,-0.131279,-0.904813,-2.493365,-0.825572,5.679642,4.437653,2.378701,-0.065576,0.067722,0.000000,-0.243353,0.084809,-0.000000
4.890000,1.819217,1.424467,-1.465754,0.514417,1.153826,0.065657,-0.683039,-0.679058,-0.139414,-0.847969,-2.448065,-0.801204,5.687692,4.621735,2.494317,-0.067986,0.068544,0.000000,-0.238514,0.079143,-0.000000
4.900000,1.824326,1.435971,-1.465105,0.507545,1.146914,0.064224,-0.691235,-0.703304,-0.147300,-0.791087,-2.400940,-0.775698,5.687333,4.802714,2.606128,-0.070346,0.069309,0.000000,-0.233536,0.073503,-0.000000
4.910000,1.829367,1.447404,-1.464470,0.500594,1.139761,0.062712,-0.698861,-0.727070,-0.154924,-0.734243,-2.352017,-0.749071,5.678696,4.980271,2.713188,-0.072656,0.070017,0.000000,-0.228422,0.067896,-0.000000
4.920000,1.834338,1.458765,-1.463851,0.493570,1.132374,0.061126,-0.705920,-0.750339,-0.162278,-0.677531,-2.301341,-0.721423,5.662272,5.154352,2.815819,-0.074914,0.070670,0.000000,-0.223179,0.062332,0.000000
4.930000,1.839238,1.470051,-1.463248,0.486478,1.124756,0.059468,-0.712412,-0.773091,-0.169349,-0.621022,-2.248942,-0.692771,5.638384,5.324777,2.913746,-0.077119,0.071268,0.000000,-0.217808,0.056815,-0.000000
4.940000,1.844067,1.481259,-1.462662,0.479324,1.116914,0.057740,-0.718341,-0.795312,-0.176130,-0.564788,-2.194858,-0.663164,5.607353,5.491367,3.006694,-0.079270,0.071810,0.000000,-0.212315,0.051352,0.000000
4.950000,1.848825,1.492388,-1.462093,0.472113,1.108852,0.055946,-0.723709,-0.816983,-0.182610,-0.508898,-2.139128,-0.632654,5.569501,5.653943,3.094386,-0.081365,0.072298,0.000000,-0.206702,0.045948,-0.000000
4.960000,1.853509,1.503436,-1.461543,0.464851,1.100576,0.054089,-0.728521,-0.838089,-0.188780,-0.453421,-2.081784,-0.601265,5.525197,5.812101,3.175784,-0.083404,0.072732,0.000000,-0.200974,0.040608,-0.000000
4.970000,1.858122,1.514399,-1.461012,0.457544,1.092092,0.052172,-0.732779,-0.858614,-0.194632,-0.398417,-2.022891,-0.569124,5.474710,5.965914,3.251470,-0.085384,0.073113,0.000000,-0.195134,0.035337,-0.000000
4.980000,1.862660,1.525277,-1.460500,0.450197,1.083406,0.050197,-0.736491,-0.878542,-0.200160,-0.343946,-1.962481,-0.536255,5.418357,6.115229,3.321259,-0.087306,0.073442,0.000000,-0.189187,0.030139,-0.000000
4.990000,1.867125,1.536067,-1.460008,0.442816,1.074523,0.048169,-0.739660,-0.897858,-0.205355,-0.290068,-1.900601,-0.502719,5.356452,6.259894,3.384972,-0.089168,0.073719,0.000000,-0.183136,0.025019,0.000000
5.000000,1.871516,1.546767,-1.459537,0.435406,1.065451,0.046091,-0.742294,-0.916549,-0.210212,-0.236835,-1.837299,-0.468577,5.289312,6.399757,3.442424,-0.090968,0.073945,0.000000,-0.176984,0.019978,-0.000000
5.010000,1.875833,1.557375,-1.459086,0.427972,1.056194,0.043966,-0.744399,-0.934600,-0.214724,-0.184307,-1.772612,-0.433859,5.217471,6.534399,3.492609,-0.092707,0.074120,0.000000,-0.170735,0.015023,-0.000000
5.020000,1.880076,1.567890,-1.458657,0.420520,1.046761,0.041798,-0.745983,-0.951997,-0.218888,-0.132511,-1.706616,-0.398709,5.141001,6.663968,3.536271,-0.094383,0.074247,0.000000,-0.164393,0.010154,0.000000
5.030000,1.884244,1.578310,-1.458251,0.413054,1.037157,0.039590,-0.747052,-0.968728,-0.222697,-0.081501,-1.639350,-0.363156,5.060191,6.788345,3.573328,-0.095995,0.074325,0.000000,-0.157961,0.005373,0.000000
5.040000,1.888337,1.588633,-1.457866,0.405580,1.027389,0.037345,-0.747616,-0.984780,-0.226150,-0.031320,-1.570867,-0.327265,4.975329,6.907409,3.603698,-0.097542,0.074355,0.000000,-0.151443,0.000685,0.000000
5.050000,1.892355,1.598857,-1.457504,0.398104,1.017463,0.035068,-0.747682,-1.000141,-0.229242,0.017993,-1.501220,-0.291104,4.886706,7.021041,3.627302,-0.099023,0.074339,0.000000,-0.144841,-0.003911,-0.000000
5.060000,1.896299,1.608981,-1.457165,0.390628,1.007388,0.032762,-0.747259,-1.014800,-0.231971,0.066390,-1.430453,-0.254710,4.794931,7.128830,3.643243,-0.100438,0.074277,0.000000,-0.138159,-0.008409,0.000000
5.070000,1.900168,1.619004,-1.456849,0.383160,0.997170,0.030430,-0.746357,-1.028747,-0.234336,0.113867,-1.358649,-0.218226,4.699934,7.230985,3.652354,-0.101786,0.074170,0.000000,-0.131401,-0.012813,-0.000000
5.080000,1.903962,1.628924,-1.456556,0.375703,0.986816,0.028076,-0.744985,-1.041970,-0.236335,0.160378,-1.285852,-0.181685,4.601964,7.327421,3.654653,-0.103066,0.074019,0.000000,-0.124570,-0.017119,0.000000
5.090000,1.907682,1.638740,-1.456287,0.368262,0.976333,0.025704,-0.743153,-1.054461,-0.237969,0.205897,-1.212120,-0.145156,4.501273,7.418055,3.650158,-0.104277,0.073826,0.000000,-0.117670,-0.021326,0.000000
5.100000,1.911328,1.648451,-1.456042,0.360841,0.965729,0.023318,-0.740870,-1.066209,-0.239238,0.250396,-1.137511,-0.108705,4.398110,7.502803,3.638887,-0.105419,0.073591,0.000000,-0.110703,-0.025433,0.000000
5.110000,1.914899,1.658054,-1.455821,0.353446,0.955011,0.020921,-0.738148,-1.077208,-0.240144,0.293837,-1.062073,-0.072371,4.293082,7.581309,3.620113,-0.106491,0.073315,0.000000,-0.103672,-0.029439,0.000000
5.120000,1.918397,1.667550,-1.455624,0.346080,0.944187,0.018516,-0.734997,-1.087448,-0.240687,0.336235,-0.985893,-0.036291,4.186039,7.653796,3.594690,-0.107492,0.072999,0.000000,-0.096581,-0.033345,-0.000000
5.130000,1.921821,1.676938,-1.455450,0.338747,0.933265,0.016108,-0.731427,-1.096924,-0.240870,0.377552,-0.909018,-0.000499,4.077187,7.720213,3.562729,-0.108422,0.072644,0.000000,-0.089434,-0.037150,-0.000000
5.140000,1.925172,1.686215,-1.455301,0.331453,0.922251,0.013700,-0.727450,-1.105627,-0.240698,0.417773,-0.831509,0.034942,3.966732,7.780510,3.524339,-0.109281,0.072252,0.000000,-0.082233,-0.040854,0.000000
5.150000,1.928450,1.695383,-1.455176,0.324200,0.911155,0.011295,-0.723075,-1.113552,-0.240173,0.456882,-0.753428,0.069967,3.854881,7.834637,3.479630,-0.110067,0.071823,0.000000,-0.074983,-0.044457,-0.000000
5.160000,1.931656,1.704438,-1.455075,0.316992,0.899983,0.008898,-0.718316,-1.120693,-0.239300,0.494852,-0.674830,0.104539,3.742204,7.882363,3.428084,-0.110780,0.071358,0.000000,-0.067684,-0.047957,0.000000
5.170000,1.934790,1.713382,-1.454998,0.309835,0.888744,0.006511,-0.713182,-1.127047,-0.238084,0.531706,-0.595793,0.138536,3.628498,7.923841,3.370515,-0.111421,0.070858,0.000000,-0.060343,-0.051357,0.000000
5.180000,1.937853,1.722213,-1.454945,0.302730,0.877445,0.004137,-0.707686,-1.132608,-0.236531,0.567419,-0.516374,0.171929,3.513925,7.959042,3.307108,-0.111987,0.070325,0.000000,-0.052962,-0.054656,-0.000000
5.190000,1.940845,1.730931,-1.454916,0.295682,0.866094,0.001781,-0.701838,-1.137373,-0.234648,0.601983,-0.436634,0.204660,3.398647,7.987939,3.238051,-0.112480,0.069758,0.000000,-0.045543,-0.057855,-0.000000
5.200000,1.943766,1.739535,-1.454910,0.288694,0.854700,-0.000555,-0.695650,-1.141340,-0.232440,0.635390,-0.356636,0.236672,3.282825,8.010504,3.163530,-0.112898,0.069161,0.000000,-0.038092,-0.060953,0.000000
5.210000,1.946619,1.748025,-1.454927,0.281770,0.843270,-0.002867,-0.689134,-1.144505,-0.229916,0.667624,-0.276442,0.267932,3.166959,8.026630,3.083244,-0.113241,0.068532,0.000000,-0.030611,-0.063950,-0.000000
5.220000,1.949402,1.756400,-1.454967,0.274913,0.831812,-0.005152,-0.682301,-1.146868,-0.227084,0.698714,-0.196121,0.298342,3.050831,8.036376,2.997925,-0.113510,0.067874,0.000000,-0.023104,-0.066849,0.000000
5.230000,1.952117,1.764661,-1.455030,0.268125,0.820335,-0.007407,-0.675163,-1.148428,-0.223953,0.728641,-0.115735,0.327875,2.934562,8.039725,2.907821,-0.113703,0.067187,0.000000,-0.015575,-0.069649,-0.000000
5.240000,1.954765,1.772807,-1.455115,0.261410,0.808846,-0.009630,-0.667732,-1.149183,-0.220530,0.757405,-0.035348,0.356483,2.818272,8.036658,2.813176,-0.113821,0.066472,0.000000,-0.008028,-0.072350,0.000000
5.250000,1.957346,1.780838,-1.455222,0.254771,0.797354,-0.011817,-0.660019,-1.149135,-0.216826,0.785006,0.044976,0.384124,2.702081,8.027156,2.714236,-0.113864,0.065731,0.000000,-0.000467,-0.074953,-0.000000
5.260000,1.959861,1.788754,-1.455351,0.248211,0.785866,-0.013966,-0.652036,-1.148284,-0.212851,0.811435,0.125171,0.410768,2.586407,8.011249,2.610919,-0.113831,0.064963,0.000000,0.007104,-0.077458,0.000000
5.270000,1.962310,1.796555,-1.455501,0.241732,0.774391,-0.016073,-0.643794,-1.146632,-0.208614,0.836722,0.205177,0.436344,2.471036,7.988864,2.503839,-0.113722,0.064172,0.000000,0.014682,-0.079867,-0.000000
5.280000,1.964695,1.804242,-1.455672,0.235336,0.762937,-0.018137,-0.635305,-1.144181,-0.204127,0.860857,0.284927,0.460833,2.356053,7.959977,2.393283,-0.113537,0.063356,0.000000,0.022260,-0.082179,0.000000
5.290000,1.967017,1.811814,-1.455864,0.229026,0.751510,-0.020155,-0.626581,-1.140934,-0.199401,0.883845,0.364355,0.484199,2.241542,7.924564,2.279537,-0.113277,0.062518,0.000000,0.029836,-0.084396,0.000000
5.300000,1.969276,1.819272,-1.456075,0.222805,0.740120,-0.022124,-0.617632,-1.136895,-0.194447,0.905690,0.443397,0.506414,2.127586,7.882598,2.162888,-0.112940,0.061658,0.000000,0.037403,-0.086517,0.000000
5.310000,1.971474,1.826616,-1.456306,0.216674,0.728775,-0.024043,-0.608471,-1.132068,-0.189277,0.926389,0.521978,0.527455,2.014523,7.834231,2.043463,-0.112529,0.060777,0.000000,0.044957,-0.088542,0.000000
5.320000,1.973610,1.833848,-1.456556,0.210636,0.717482,-0.025909,-0.599108,-1.126458,-0.183902,0.945972,0.600051,0.547282,1.902153,7.779242,1.921727,-0.112041,0.059876,0.000000,0.052494,-0.090474,-0.000000
5.330000,1.975687,1.840966,-1.456824,0.204693,0.706248,-0.027721,-0.589555,-1.120069,-0.178335,0.964434,0.677541,0.565883,1.790529,7.717586,1.797984,-0.111479,0.058956,0.000000,0.060008,-0.092312,0.000000
5.340000,1.977704,1.847973,-1.457110,0.198846,0.695083,-0.029475,-0.579823,-1.112909,-0.172589,0.981785,0.754381,0.583236,1.679705,7.649218,1.672542,-0.110841,0.058018,0.000000,0.067492,-0.094056,0.000000
5.350000,1.979664,1.854868,-1.457413,0.193097,0.683993,-0.031172,-0.569923,-1.104984,-0.166675,0.998031,0.830503,0.599329,1.569733,7.574091,1.545704,-0.110129,0.057064,0.000000,0.074942,-0.095707,0.000000
5.360000,1.981567,1.861653,-1.457733,0.187448,0.672986,-0.032808,-0.559867,-1.096302,-0.160606,1.013174,0.905829,0.614146,1.460891,7.492440,1.417792,-0.109343,0.056093,0.000000,0.082349,-0.097264,-0.000000
5.370000,1.983413,1.868328,-1.458069,0.181900,0.662069,-0.034383,-0.549664,-1.086870,-0.154396,1.027242,0.980316,0.627681,1.352980,7.403905,1.289095,-0.108482,0.055107,0.000000,0.089711,-0.098730,-0.000000
5.380000,1.985205,1.874895,-1.458421,0.176455,0.651251,-0.035896,-0.539325,-1.076698,-0.148057,1.040237,1.053884,0.639927,1.246026,7.308406,1.159916,-0.107549,0.054107,0.000000,0.097020,-0.100104,-0.000000
5.390000,1.986943,1.881354,-1.458787,0.171114,0.640538,-0.037344,-0.528862,-1.065796,-0.141602,1.052166,1.126461,0.650879,1.140056,7.205864,1.030560,-0.106542,0.053093,0.000000,0.104268,-0.101386,0.000000
5.400000,1.988627,1.887706,-1.459168,0.165878,0.629937,-0.038727,-0.518285,-1.054173,-0.135044,1.063041,1.197977,0.660538,1.035095,7.096197,0.901330,-0.105463,0.052068,0.000000,0.111448,-0.102577,0.000000
5.410000,1.990261,1.893953,-1.459561,0.160749,0.619457,-0.040045,-0.507605,-1.041840,-0.128396,1.072863,1.268347,0.668900,0.931371,6.979673,0.772710,-0.104313,0.051031,0.000000,0.118552,-0.103675,-0.000000
5.420000,1.991843,1.900095,-1.459968,0.155726,0.609103,-0.041295,-0.496832,-1.028810,-0.121670,1.081663,1.337531,0.675987,0.828684,6.855823,0.644802,-0.103093,0.049983,0.000000,0.125574,-0.104683,0.000000
5.430000,1.993375,1.906135,-1.460387,0.150812,0.598883,-0.042478,-0.485975,-1.015094,-0.114880,1.089441,1.405439,0.681799,0.727034,6.724524,0.517888,-0.101802,0.048926,0.000000,0.132507,-0.105601,-0.000000
5.440000,1.994859,1.912074,-1.460818,0.146007,0.588803,-0.043593,-0.475046,-1.000705,-0.108038,1.096207,1.471996,0.686349,0.626423,6.585653,0.392249,-0.100443,0.047861,0.000000,0.139340,-0.106427,0.000000
5.450000,1.996296,1.917912,-1.461259,0.141312,0.578871,-0.044639,-0.464054,-0.985659,-0.101157,1.101973,1.537126,0.689649,0.526852,6.439087,0.268167,-0.099016,0.046787,0.000000,0.146066,-0.107164,0.000000
5.460000,1.997686,1.923651,-1.461710,0.136726,0.569092,-0.045616,-0.453010,-0.969968,-0.094250,1.106740,1.600737,0.691705,0.428507,6.285074,0.146253,-0.097522,0.045707,0.000000,0.152674,-0.107808,-0.000000
5.470000,1.999031,1.929294,-1.462171,0.132251,0.559474,-0.046524,-0.441923,-0.953649,-0.087327,1.110538,1.662784,0.692567,0.331183,6.123076,0.026419,-0.095963,0.044621,0.000000,0.159158,-0.108363,-0.000000
5.480000,2.000331,1.934841,-1.462640,0.127888,0.550021,-0.047362,-0.430803,-0.936718,-0.080402,1.113367,1.723171,0.692241,0.234857,5.952925,-0.091094,-0.094339,0.043530,0.000000,0.165507,-0.108828,0.000000
5.490000,2.001589,1.940295,-1.463118,0.123636,0.540741,-0.048132,-0.419659,-0.919191,-0.073486,1.115238,1.781815,0.690753,0.139508,5.774454,-0.206043,-0.092653,0.042435,0.000000,0.171710,-0.109203,-0.000000
5.500000,2.002805,1.945657,-1.463603,0.119495,0.531639,-0.048832,-0.408501,-0.901088,-0.066591,1.116161,1.838632,0.688130,0.045115,5.587495,-0.318188,-0.090906,0.041337,0.000000,0.177759,-0.109487,-0.000000
5.510000,2.003979,1.950929,-1.464094,0.115466,0.522721,-0.049464,-0.397339,-0.882425,-0.059728,1.116137,1.893523,0.684382,-0.048174,5.392220,-0.426840,-0.089098,0.040237,0.000000,0.183640,-0.109680,-0.000000
5.520000,2.005114,1.956112,-1.464592,0.111548,0.513993,-0.050027,-0.386181,-0.863224,-0.052907,1.115192,1.946432,0.679584,-0.140571,5.188080,-0.532260,-0.087233,0.039135,0.000000,0.189346,-0.109783,-0.000000
5.530000,2.006211,1.961209,-1.465095,0.107742,0.505459,-0.050522,-0.375038,-0.843504,-0.046139,1.113328,1.997254,0.673748,-0.232117,4.974865,-0.634259,-0.085312,0.038033,0.000000,0.194864,-0.109796,0.000000
5.540000,2.007269,1.966222,-1.465602,0.104047,0.497124,-0.050950,-0.363918,-0.823286,-0.039435,1.110553,2.045898,0.666911,-0.322855,4.752365,-0.732652,-0.083337,0.036931,0.000000,0.200183,-0.109719,-0.000000
5.550000,2.008292,1.971152,-1.466113,0.100463,0.488994,-0.051311,-0.352830,-0.802593,-0.032804,1.106874,2.092270,0.659108,-0.412827,4.520372,-0.827251,-0.081309,0.035831,0.000000,0.205291,-0.109550,0.000000
5.560000,2.009279,1.976002,-1.466628,0.096990,0.481074,-0.051606,-0.341783,-0.781449,-0.026256,1.102293,2.136262,0.650358,-0.501929,4.278952,-0.917349,-0.079232,0.034733,0.000000,0.210174,-0.109291,0.000000
5.570000,2.010232,1.980774,-1.467145,0.093628,0.473367,-0.051836,-0.330787,-0.759876,-0.019800,1.096831,2.177803,0.640751,-0.590368,4.027585,-1.003343,-0.077106,0.033639,0.000000,0.214823,-0.108940,-0.000000
5.580000,2.011152,1.985470,-1.467665,0.090374,0.465878,-0.052002,-0.319850,-0.737901,-0.013444,1.090488,2.216780,0.630306,-0.678202,3.766029,-1.085111,-0.074936,0.032548,0.000000,0.219224,-0.108499,-0.000000
5.590000,2.012040,1.990093,-1.468185,0.087230,0.458610,-0.052105,-0.308980,-0.715550,-0.007197,1.083269,2.253089,0.619064,-0.765491,3.494040,-1.162529,-0.072723,0.031463,0.000000,0.223363,-0.107966,0.000000
5.600000,2.012897,1.994643,-1.468706,0.084195,0.451568,-0.052147,-0.298187,-0.692849,-0.001065,1.075179,2.286625,0.607070,-0.852296,3.211374,-1.235475,-0.070470,0.030384,0.000000,0.227228,-0.107341,-0.000000
5.610000,2.013724,1.999125,-1.469228,0.081266,0.444754,-0.052127,-0.287480,-0.669827,0.004942,1.066220,2.317272,0.594348,-0.938578,2.917987,-1.303282,-0.068179,0.029311,0.000000,0.230804,-0.106624,-0.000000
5.620000,2.014523,2.003539,-1.469749,0.078445,0.438172,-0.052048,-0.276866,-0.646513,0.010819,1.056405,2.344939,0.580996,-1.024507,2.613413,-1.366437,-0.065855,0.028246,0.000000,0.234078,-0.105816,-0.000000
5.630000,2.015293,2.007889,-1.470269,0.075729,0.431825,-0.051911,-0.266354,-0.622938,0.016560,1.045731,2.369502,0.567035,-1.110155,2.297385,-1.424883,-0.063499,0.027191,0.000000,0.237037,-0.104914,0.000000
5.640000,2.016038,2.012177,-1.470787,0.073117,0.425714,-0.051718,-0.255954,-0.599134,0.022158,1.034202,2.390847,0.552514,-1.195594,1.969634,-1.478564,-0.061115,0.026144,0.000000,0.239665,-0.103920,0.000000
5.650000,2.016756,2.016404,-1.471303,0.070609,0.419843,-0.051469,-0.245673,-0.575132,0.027609,1.021820,2.408855,0.537480,-1.280896,1.629895,-1.527423,-0.058707,0.025109,0.000000,0.241949,-0.102833,0.000000
5.660000,2.017450,2.020574,-1.471816,0.068203,0.414212,-0.051166,-0.235520,-0.550968,0.032906,1.008584,2.423399,0.521961,-1.366113,1.278047,-1.570896,-0.056277,0.024084,0.000000,0.243873,-0.101652,0.000000
5.670000,2.018120,2.024689,-1.472326,0.065898,0.408824,-0.050811,-0.225504,-0.526676,0.038047,0.994497,2.434368,0.506055,-1.451340,0.913657,-1.609496,-0.053830,0.023073,0.000000,0.245424,-0.100376,0.000000
5.680000,2.018768,2.028751,-1.472832,0.063693,0.403679,-0.050405,-0.215633,-0.502293,0.043026,0.979557,2.441629,0.489788,-1.536650,0.536439,-1.643228,-0.051370,0.022074,0.000000,0.246585,-0.099007,-0.000000
5.690000,2.019395,2.032764,-1.473334,0.061585,0.398778,-0.049951,-0.205916,-0.477857,0.047841,0.963763,2.445053,0.473207,-1.622118,0.146106,-1.672099,-0.048900,0.021090,0.000000,0.247341,-0.097542,-0.000000
5.700000,2.020000,2.036728,-1.473831,0.059574,0.394122,-0.049449,-0.196361,-0.453405,0.052489,0.947114,2.444506,0.456362,-1.707818,-0.257626,-1.696113,-0.046425,0.020121,0.000000,0.247678,-0.095981,0.000000
5.710000,2.020586,2.040647,-1.474323,0.057657,0.389710,-0.048902,-0.186977,-0.428980,0.056968,0.929610,2.439847,0.439284,-1.793932,-0.674847,-1.714857,-0.043948,0.019169,0.000000,0.247578,-0.094326,0.000000
5.720000,2.021154,2.044523,-1.474809,0.055834,0.385542,-0.048310,-0.177772,-0.404623,0.061274,0.911238,2.430954,0.422062,-1.880414,-1.106063,-1.728808,-0.041474,0.018233,0.000000,0.247028,-0.092573,0.000000
5.730000,2.021703,2.048358,-1.475289,0.054101,0.381617,-0.047677,-0.168755,-0.380376,0.065408,0.892000,2.417678,0.404724,-1.967326,-1.551586,-1.738023,-0.039009,0.017316,0.000000,0.246010,-0.090722,-0.000000
5.740000,2.022236,2.052156,-1.475762,0.052458,0.377934,-0.047003,-0.159934,-0.356284,0.069369,0.871890,2.399874,0.387317,-2.054728,-2.011724,-1.742558,-0.036556,0.016418,0.000000,0.244510,-0.088774,0.000000
