time,x,y,z,vx,vy,vz,ax,ay,az,jx,jy,jz,sx,sy,sz,roll,pitch,yaw,p,q,r
0.000000,-1.751903,-1.806879,-1.494345,0.001930,-0.016436,0.006908,0.158274,0.271893,0.001984,-3.823576,-6.910988,-0.048209,72.059950,189.675191,8.672172,0.027711,-0.016136,0.000000,-0.703956,0.389670,-0.000000
0.010000,-1.751876,-1.807031,-1.494275,0.003333,-0.014032,0.006926,0.123509,0.211926,0.001920,-3.142180,-5.116102,0.033840,64.322501,169.553083,7.747973,0.021602,-0.012592,0.000000,-0.521175,0.320198,0.000000
0.020000,-1.751837,-1.807161,-1.494206,0.004422,-0.012141,0.006949,0.095182,0.168925,0.002632,-2.535105,-3.515002,0.106951,57.191353,150.908153,6.884110,0.017222,-0.009705,0.000000,-0.358050,0.258321,-0.000000
0.030000,-1.751789,-1.807275,-1.494136,0.005256,-0.010603,0.006981,0.072579,0.141028,0.004032,-1.996417,-2.093218,0.171717,50.640910,133.679619,6.078437,0.014380,-0.007401,0.000000,-0.213140,0.203430,-0.000000
0.040000,-1.751733,-1.807374,-1.494066,0.005890,-0.009276,0.007031,0.055045,0.126510,0.006040,-1.520437,-0.836891,0.228707,44.645576,117.806700,5.328806,0.012903,-0.005615,0.000000,-0.085035,0.154935,0.000000
0.050000,-1.751671,-1.807460,-1.493996,0.006372,-0.008034,0.007104,0.041980,0.123783,0.008582,-1.101741,0.267232,0.278472,39.179755,103.228616,4.633071,0.012628,-0.004283,0.000000,0.027625,0.112274,0.000000
0.060000,-1.751606,-1.807535,-1.493924,0.006743,-0.006766,0.007204,0.032837,0.131389,0.011587,-0.735162,1.231795,0.321541,34.217850,89.884583,3.989085,0.013408,-0.003351,0.000000,0.126134,0.074911,-0.000000
0.070000,-1.751537,-1.807595,-1.493852,0.007040,-0.005376,0.007337,0.027119,0.147994,0.014992,-0.415789,2.068835,0.358419,29.734267,77.713822,3.394701,0.015108,-0.002769,0.000000,0.211719,0.042343,-0.000000
0.080000,-1.751465,-1.807641,-1.493777,0.007295,-0.003780,0.007505,0.024379,0.172379,0.018736,-0.138967,2.789780,0.389593,25.703410,66.655551,2.847772,0.017604,-0.002490,0.000000,0.285537,0.014092,0.000000
0.090000,-1.751391,-1.807670,-1.493701,0.007536,-0.001906,0.007713,0.024213,0.203438,0.022766,0.099703,3.405451,0.415526,22.099681,56.648987,2.346151,0.020783,-0.002474,0.000000,0.348679,-0.010290,-0.000000
0.100000,-1.751314,-1.807678,-1.493623,0.007787,0.000308,0.007961,0.026260,0.240171,0.027031,0.304365,3.926063,0.436660,18.897486,47.633351,1.887691,0.024545,-0.002684,0.000000,0.402166,-0.031222,0.000000
0.110000,-1.751235,-1.807663,-1.493542,0.008068,0.002913,0.008254,0.030200,0.281675,0.031485,0.478906,4.361219,0.453416,16.071228,39.547860,1.470247,0.028797,-0.003088,0.000000,0.446958,-0.049098,0.000000
0.120000,-1.751153,-1.807619,-1.493458,0.008396,0.005954,0.008592,0.035750,0.327141,0.036086,0.626957,4.719918,0.466194,13.595312,32.331733,1.091669,0.033458,-0.003658,0.000000,0.483953,-0.064284,-0.000000
0.130000,-1.751067,-1.807542,-1.493370,0.008787,0.009467,0.008976,0.042662,0.375846,0.040797,0.751894,5.010549,0.475372,11.444142,25.924190,0.749813,0.038453,-0.004367,0.000000,0.513986,-0.077120,0.000000
0.140000,-1.750977,-1.807428,-1.493278,0.009253,0.013480,0.009408,0.050721,0.427151,0.045583,0.856837,5.240894,0.481306,9.592121,20.264447,0.442531,0.043717,-0.005194,0.000000,0.537834,-0.087921,-0.000000
0.150000,-1.750881,-1.807271,-1.493182,0.009805,0.018016,0.009888,0.059741,0.480487,0.050413,0.944649,5.418128,0.484331,8.013654,15.291725,0.167676,0.049192,-0.006121,0.000000,0.556215,-0.096975,0.000000
0.160000,-1.750780,-1.807065,-1.493080,0.010451,0.023095,0.010416,0.069565,0.535358,0.055261,1.017937,5.548816,0.484760,6.683145,10.945241,-0.076899,0.054825,-0.007131,0.000000,0.569789,-0.104545,-0.000000
0.170000,-1.750672,-1.806807,-1.492973,0.011198,0.028727,0.010993,0.080060,0.591329,0.060101,1.079053,5.638917,0.482887,5.574999,7.164215,-0.293340,0.060573,-0.008211,0.000000,0.579155,-0.110869,0.000000
0.180000,-1.750556,-1.806489,-1.492860,0.012054,0.034924,0.011618,0.091113,0.648019,0.064912,1.130092,5.693783,0.478980,4.663618,3.887865,-0.483794,0.066396,-0.009349,0.000000,0.584856,-0.116158,0.000000
0.190000,-1.750431,-1.806106,-1.492741,0.013022,0.041689,0.012291,0.102634,0.705103,0.069674,1.172896,5.718154,0.473290,3.923407,1.055409,-0.650409,0.072260,-0.010537,0.000000,0.587375,-0.120599,0.000000
0.200000,-1.750295,-1.805653,-1.492614,0.014108,0.049026,0.013011,0.114549,0.762295,0.074372,1.209046,5.716168,0.466044,3.328771,-1.393934,-0.795330,0.078135,-0.011765,0.000000,0.587132,-0.124353,-0.000000
0.210000,-1.750148,-1.805124,-1.492480,0.015313,0.056931,0.013778,0.126842,0.819463,0.078991,1.244034,5.701814,0.457449,2.748953,-3.785241,-0.920699,0.084006,-0.013034,0.000000,0.585559,-0.127980,-0.000000
0.220000,-1.749988,-1.804513,-1.492338,0.016644,0.065410,0.014591,0.139412,0.876256,0.083517,1.269077,5.653242,0.447688,2.276395,-5.882636,-1.028670,0.089838,-0.014332,0.000000,0.580429,-0.130581,0.000000
0.230000,-1.749815,-1.803814,-1.492188,0.018102,0.074455,0.015448,0.152210,0.932463,0.087941,1.289877,5.585046,0.436926,1.898376,-7.714535,-1.121390,0.095608,-0.015655,0.000000,0.573239,-0.132737,-0.000000
0.240000,-1.749626,-1.803022,-1.492029,0.019689,0.084057,0.016349,0.165198,0.987900,0.092253,1.307317,5.499741,0.425304,1.602178,-9.309358,-1.201006,0.101297,-0.016998,0.000000,0.564252,-0.134541,-0.000000
0.250000,-1.749421,-1.802131,-1.491861,0.021407,0.094209,0.017293,0.178347,1.042408,0.096445,1.322151,5.399555,0.412942,1.375082,-10.695523,-1.269667,0.106888,-0.018359,0.000000,0.553702,-0.136067,-0.000000
0.260000,-1.749197,-1.801136,-1.491683,0.023256,0.104900,0.018278,0.191657,1.095899,0.100512,1.337079,5.291150,0.400131,1.152037,-12.020638,-1.334336,0.112372,-0.019737,0.000000,0.542277,-0.137595,0.000000
0.270000,-1.748955,-1.800031,-1.491495,0.025239,0.116122,0.019303,0.205082,1.148190,0.104445,1.347695,5.165018,0.386495,0.979063,-13.179337,-1.391755,0.117729,-0.021127,0.000000,0.529013,-0.138671,-0.000000
0.280000,-1.748692,-1.798812,-1.491297,0.027358,0.127860,0.020366,0.218606,1.199164,0.108240,1.356806,5.028072,0.372315,0.849848,-14.185445,-1.443482,0.122948,-0.022529,0.000000,0.514625,-0.139583,-0.000000
0.290000,-1.748407,-1.797472,-1.491088,0.029612,0.140100,0.021467,0.232215,1.248720,0.111890,1.364817,4.881771,0.357639,0.758082,-15.052784,-1.491074,0.128018,-0.023940,0.000000,0.499267,-0.140374,0.000000
0.300000,-1.748099,-1.796008,-1.490868,0.032002,0.152829,0.022603,0.245900,1.296772,0.115391,1.372071,4.727433,0.342502,0.697452,-15.795180,-1.536090,0.132931,-0.025359,0.000000,0.483082,-0.141078,0.000000
0.310000,-1.747767,-1.794414,-1.490636,0.034530,0.166030,0.023774,0.259666,1.343269,0.118742,1.379865,4.568324,0.327203,0.635971,-16.479150,-1.587222,0.137680,-0.026787,0.000000,0.466409,-0.141829,0.000000
0.320000,-1.747408,-1.792686,-1.490392,0.037196,0.179688,0.024978,0.273495,1.388118,0.121933,1.386009,4.400548,0.311077,0.596148,-17.059371,-1.638020,0.142257,-0.028223,0.000000,0.448853,-0.142402,-0.000000
0.330000,-1.747023,-1.790819,-1.490136,0.040000,0.193787,0.026212,0.287385,1.431262,0.124961,1.391850,4.227458,0.294441,0.574816,-17.543214,-1.689167,0.146655,-0.029664,0.000000,0.430760,-0.142935,-0.000000
0.340000,-1.746608,-1.788809,-1.489868,0.042943,0.208308,0.027476,0.301332,1.472652,0.127821,1.397557,4.049981,0.277290,0.568809,-17.938052,-1.741350,0.150870,-0.031112,0.000000,0.412230,-0.143446,0.000000
0.350000,-1.746163,-1.786651,-1.489587,0.046027,0.223234,0.028768,0.315336,1.512250,0.130505,1.403267,3.868969,0.259609,0.574958,-18.251255,-1.795251,0.154899,-0.032566,0.000000,0.393352,-0.143948,-0.000000
0.360000,-1.745687,-1.784343,-1.489292,0.049250,0.238546,0.030086,0.329403,1.550032,0.133014,1.409581,3.686115,0.241648,0.577584,-18.513209,-1.858392,0.158738,-0.034027,0.000000,0.374303,-0.144504,0.000000
0.370000,-1.745178,-1.781879,-1.488985,0.052615,0.254228,0.031428,0.343528,1.585964,0.135336,1.415401,3.499965,0.222739,0.587566,-18.705454,-1.923783,0.162384,-0.035493,0.000000,0.354929,-0.144999,0.000000
0.380000,-1.744634,-1.779257,-1.488664,0.056121,0.270259,0.032792,0.357712,1.620026,0.137466,1.421352,3.312223,0.203165,0.603267,-18.832542,-1.991272,0.165836,-0.036965,0.000000,0.335408,-0.145498,0.000000
0.390000,-1.744055,-1.776473,-1.488329,0.059769,0.286622,0.034176,0.371956,1.652206,0.139397,1.427480,3.123516,0.182907,0.623055,-18.899028,-2.060706,0.169092,-0.038444,0.000000,0.315804,-0.146006,0.000000
0.400000,-1.743438,-1.773524,-1.487980,0.063560,0.303297,0.035579,0.386262,1.682495,0.141122,1.433821,2.934429,0.161945,0.645292,-18.909463,-2.131933,0.172152,-0.039928,0.000000,0.296176,-0.146526,0.000000
0.410000,-1.742783,-1.770406,-1.487617,0.067495,0.320266,0.036998,0.400635,1.710899,0.142636,1.440634,2.745904,0.140448,0.662154,-18.878647,-2.209489,0.175016,-0.041418,0.000000,0.276620,-0.147084,-0.000000
0.420000,-1.742088,-1.767117,-1.487240,0.071573,0.337509,0.038431,0.415075,1.737415,0.143929,1.447340,2.557474,0.117962,0.678955,-18.799634,-2.287958,0.177684,-0.042915,0.000000,0.257083,-0.147620,-0.000000
0.430000,-1.741351,-1.763655,-1.486849,0.075796,0.355008,0.039876,0.429583,1.762052,0.144992,1.454210,2.370061,0.094689,0.694818,-18.675722,-2.366612,0.180158,-0.044418,0.000000,0.237660,-0.148162,-0.000000
0.440000,-1.740572,-1.760017,-1.486443,0.080165,0.372744,0.041330,0.444160,1.784821,0.145820,1.461230,2.184098,0.070631,0.708867,-18.510209,-2.444724,0.182438,-0.045927,0.000000,0.218394,-0.148708,-0.000000
0.450000,-1.739747,-1.756199,-1.486022,0.084680,0.390698,0.042791,0.458808,1.805740,0.146402,1.468378,1.999985,0.045798,0.720225,-18.306395,-2.521567,0.184526,-0.047442,0.000000,0.199323,-0.149255,-0.000000
0.460000,-1.738877,-1.752202,-1.485587,0.089341,0.408852,0.044257,0.473529,1.824831,0.146734,1.475752,1.818289,0.020275,0.724752,-18.072676,-2.598149,0.186426,-0.048964,0.000000,0.180505,-0.149813,-0.000000
0.470000,-1.737960,-1.748022,-1.485137,0.094151,0.427188,0.045725,0.488323,1.842114,0.146805,1.483006,1.638867,-0.006077,0.725234,-17.806629,-2.671795,0.188137,-0.050491,0.000000,0.161921,-0.150346,-0.000000
0.480000,-1.736994,-1.743658,-1.484672,0.099108,0.445689,0.047192,0.503189,1.857617,0.146610,1.490242,1.462255,-0.033148,0.721194,-17.510928,-2.741565,0.189665,-0.052025,0.000000,0.143627,-0.150865,0.000000
0.490000,-1.735977,-1.739108,-1.484193,0.104215,0.464335,0.048656,0.518128,1.871370,0.146140,1.497413,1.288738,-0.060893,0.712157,-17.188246,-2.806520,0.191011,-0.053564,0.000000,0.125650,-0.151365,0.000000
0.500000,-1.734909,-1.734370,-1.483699,0.109471,0.483110,0.050114,0.533137,1.883403,0.145390,1.504467,1.118571,-0.089259,0.697644,-16.841260,-2.865720,0.192179,-0.055108,0.000000,0.108016,-0.151840,-0.000000
0.510000,-1.733788,-1.729445,-1.483191,0.114878,0.501997,0.051563,0.548217,1.893754,0.144353,1.511424,0.952117,-0.118228,0.675222,-16.475982,-2.917128,0.193173,-0.056657,0.000000,0.090760,-0.152291,-0.000000
0.520000,-1.732611,-1.724330,-1.482668,0.120435,0.520980,0.053000,0.563365,1.902458,0.143024,1.518038,0.789265,-0.147626,0.646610,-16.091338,-2.961036,0.193996,-0.058211,0.000000,0.073874,-0.152696,0.000000
0.530000,-1.731378,-1.719025,-1.482131,0.126145,0.540041,0.054423,0.578577,1.909553,0.141399,1.524334,0.630347,-0.177421,0.611571,-15.689594,-2.996638,0.194652,-0.059770,0.000000,0.057390,-0.153055,0.000000
0.540000,-1.730088,-1.713529,-1.481579,0.132007,0.559166,0.055827,0.593850,1.915079,0.139474,1.530247,0.475523,-0.207528,0.569868,-15.273016,-3.023129,0.195145,-0.061331,0.000000,0.041326,-0.153364,0.000000
0.550000,-1.728738,-1.707842,-1.481014,0.138022,0.578338,0.057211,0.609180,1.919077,0.137248,1.535709,0.324929,-0.237851,0.521264,-14.843870,-3.039703,0.195479,-0.062896,0.000000,0.025696,-0.153614,-0.000000
0.560000,-1.727327,-1.701962,-1.480435,0.144191,0.597542,0.058571,0.624563,1.921593,0.134716,1.540703,0.178800,-0.268411,0.464146,-14.407465,-3.042396,0.195660,-0.064463,0.000000,0.010524,-0.153805,0.000000
0.570000,-1.725853,-1.695891,-1.479843,0.150514,0.616765,0.059905,0.639992,1.922668,0.131879,1.545029,0.036944,-0.298802,0.399819,-13.962651,-3.033948,0.195691,-0.066032,0.000000,-0.004203,-0.153919,-0.000000
0.580000,-1.724316,-1.689627,-1.479237,0.156991,0.635991,0.061208,0.655461,1.922347,0.128740,1.548675,-0.100431,-0.329052,0.328217,-13.511317,-3.013940,0.195578,-0.067601,0.000000,-0.018464,-0.153954,0.000000
0.590000,-1.722713,-1.683171,-1.478619,0.163623,0.655207,0.062478,0.670963,1.920675,0.125299,1.551569,-0.233267,-0.359041,0.249270,-13.055358,-2.981953,0.195324,-0.069170,0.000000,-0.032251,-0.153904,0.000000
0.600000,-1.721043,-1.676523,-1.477988,0.170410,0.674400,0.063713,0.686490,1.917697,0.121560,1.553636,-0.361529,-0.388649,0.162909,-12.596666,-2.937568,0.194934,-0.070738,0.000000,-0.045559,-0.153762,0.000000
0.610000,-1.719304,-1.669683,-1.477345,0.177353,0.693557,0.064909,0.702033,1.913461,0.117526,1.554845,-0.485067,-0.417914,0.067980,-12.140438,-2.876223,0.194414,-0.072305,0.000000,-0.058373,-0.153526,0.000000
0.620000,-1.717495,-1.662652,-1.476690,0.184451,0.712665,0.066063,0.717584,1.908011,0.113204,1.555019,-0.604192,-0.446316,-0.034367,-11.684856,-2.802149,0.193768,-0.073867,0.000000,-0.070714,-0.153182,0.000000
0.630000,-1.715615,-1.655430,-1.476024,0.191704,0.731713,0.067172,0.733130,1.901392,0.108603,1.554133,-0.718771,-0.473915,-0.144068,-11.231410,-2.715436,0.193002,-0.075426,0.000000,-0.082570,-0.152727,-0.000000
0.640000,-1.713661,-1.648018,-1.475347,0.199113,0.750689,0.068234,0.748663,1.893650,0.103729,1.552114,-0.828833,-0.500583,-0.261060,-10.781587,-2.616173,0.192119,-0.076979,0.000000,-0.093942,-0.152156,-0.000000
0.650000,-1.711632,-1.640416,-1.474659,0.206678,0.769583,0.069246,0.764169,1.884830,0.098594,1.548888,-0.934420,-0.526197,-0.385278,-10.336875,-2.504447,0.191124,-0.078526,0.000000,-0.104830,-0.151464,-0.000000
0.660000,-1.709527,-1.632627,-1.473962,0.214397,0.788382,0.070205,0.779636,1.874978,0.093208,1.544419,-1.035449,-0.550792,-0.517550,-9.902390,-2.376292,0.190024,-0.080064,0.000000,-0.115229,-0.150646,0.000000
0.670000,-1.707343,-1.624649,-1.473255,0.222270,0.807079,0.071109,0.795052,1.864136,0.087583,1.538553,-1.132331,-0.573864,-0.656811,-9.475547,-2.236348,0.188821,-0.081594,0.000000,-0.125169,-0.149693,-0.000000
0.680000,-1.705081,-1.616485,-1.472540,0.230298,0.825662,0.071956,0.810403,1.852346,0.081735,1.531261,-1.224988,-0.595481,-0.802888,-9.057390,-2.085202,0.187522,-0.083112,0.000000,-0.134644,-0.148603,0.000000
0.690000,-1.702737,-1.608136,-1.471816,0.238478,0.844123,0.072743,0.825673,1.839650,0.075679,1.522474,-1.313512,-0.615533,-0.955607,-8.648964,-1.923438,0.186130,-0.084618,0.000000,-0.143662,-0.147370,0.000000
0.700000,-1.700311,-1.599603,-1.471085,0.246811,0.862452,0.073469,0.840847,1.826089,0.069430,1.512127,-1.398004,-0.633917,-1.114796,-8.251311,-1.751641,0.184650,-0.086111,0.000000,-0.152231,-0.145991,0.000000
0.710000,-1.697800,-1.590888,-1.470347,0.255295,0.880642,0.074131,0.855910,1.811704,0.063005,1.500186,-1.478429,-0.650658,-1.281015,-7.869217,-1.567280,0.183087,-0.087588,0.000000,-0.160351,-0.144462,-0.000000
0.720000,-1.695204,-1.581991,-1.469603,0.263928,0.898683,0.074728,0.870845,1.796533,0.056423,1.486519,-1.555262,-0.665373,-1.453267,-7.499527,-1.374440,0.181445,-0.089049,0.000000,-0.168060,-0.142777,0.000000
0.730000,-1.692521,-1.572915,-1.468853,0.272711,0.916570,0.075259,0.885635,1.780611,0.049704,1.471101,-1.628463,-0.678122,-1.631289,-7.142825,-1.174085,0.179727,-0.090491,0.000000,-0.175359,-0.140932,-0.000000
0.740000,-1.689750,-1.563660,-1.468098,0.281641,0.934293,0.075722,0.900261,1.763975,0.042867,1.453875,-1.698164,-0.688833,-1.814816,-6.799699,-0.967184,0.177939,-0.091913,0.000000,-0.182260,-0.138925,-0.000000
0.750000,-1.686888,-1.554229,-1.467339,0.290716,0.951847,0.076116,0.914706,1.746659,0.035934,1.434787,-1.764504,-0.697447,-2.003586,-6.470733,-0.754702,0.176083,-0.093313,0.000000,-0.188777,-0.136753,-0.000000
0.760000,-1.683935,-1.544624,-1.466576,0.299934,0.969224,0.076440,0.928951,1.728697,0.028925,1.413811,-1.827489,-0.703977,-2.197948,-6.160031,-0.535946,0.174165,-0.094690,0.000000,-0.194912,-0.134414,0.000000
0.770000,-1.680889,-1.534845,-1.465810,0.309294,0.986419,0.076694,0.942976,1.710119,0.021862,1.390840,-1.887597,-0.708228,-2.396951,-5.864231,-0.313747,0.172186,-0.096042,0.000000,-0.200713,-0.131901,-0.000000
0.780000,-1.677748,-1.524896,-1.465042,0.318793,1.003425,0.076878,0.956761,1.690955,0.014768,1.365858,-1.944823,-0.710245,-2.600257,-5.583487,-0.089275,0.170151,-0.097367,0.000000,-0.206179,-0.129214,-0.000000
0.790000,-1.674512,-1.514778,-1.464273,0.328428,1.020236,0.076990,0.970286,1.671232,0.007665,1.338822,-1.999318,-0.710010,-2.807526,-5.317955,0.136300,0.168064,-0.098664,0.000000,-0.211330,-0.126351,0.000000
0.800000,-1.671179,-1.504492,-1.463503,0.338198,1.036848,0.077031,0.983530,1.650977,0.000575,1.309695,-2.051234,-0.707519,-3.018421,-5.067790,0.361807,0.165926,-0.099930,0.000000,-0.216181,-0.123308,-0.000000
0.810000,-1.667748,-1.494041,-1.462732,0.348098,1.053254,0.077001,0.996473,1.630217,-0.006478,1.278464,-2.100607,-0.702780,-3.233144,-4.836128,0.586123,0.163741,-0.101164,0.000000,-0.220738,-0.120087,0.000000
0.820000,-1.664217,-1.483428,-1.461963,0.358126,1.069450,0.076902,1.009092,1.608973,-0.013473,1.245047,-2.147874,-0.695807,-3.450749,-4.619777,0.808024,0.161512,-0.102364,0.000000,-0.225048,-0.116680,-0.000000
0.830000,-1.660585,-1.472653,-1.461194,0.368278,1.085432,0.076732,1.021367,1.587266,-0.020387,1.209441,-2.193053,-0.686631,-3.670832,-4.418528,1.026336,0.159241,-0.103527,0.000000,-0.229114,-0.113088,-0.000000
0.840000,-1.656851,-1.461720,-1.460428,0.378552,1.101194,0.076494,1.033274,1.565118,-0.027198,1.171623,-2.236294,-0.675296,-3.892987,-4.232171,1.239883,0.156930,-0.104654,0.000000,-0.232956,-0.109310,0.000000
0.850000,-1.653014,-1.450630,-1.459665,0.388943,1.116733,0.076189,1.044792,1.542546,-0.033886,1.131576,-2.277746,-0.661853,-4.116809,-4.060495,1.447488,0.154583,-0.105740,0.000000,-0.236590,-0.105344,0.000000
0.860000,-1.649072,-1.439386,-1.458905,0.399446,1.132044,0.075817,1.055898,1.519569,-0.040428,1.089303,-2.317467,-0.646312,-4.342412,-3.905462,1.646521,0.152199,-0.106785,0.000000,-0.240026,-0.101191,0.000000
0.870000,-1.645024,-1.427990,-1.458149,0.410059,1.147123,0.075381,1.066570,1.496202,-0.046806,1.044748,-2.355805,-0.628885,-4.568810,-3.764424,1.837439,0.149783,-0.107787,0.000000,-0.243303,-0.096845,-0.000000
0.880000,-1.640870,-1.416444,-1.457397,0.420776,1.161966,0.074881,1.076785,1.472458,-0.053000,0.997926,-2.392800,-0.609594,-4.795534,-3.636907,2.019244,0.147334,-0.108744,0.000000,-0.246428,-0.092308,0.000000
0.890000,-1.636609,-1.404751,-1.456651,0.431593,1.176571,0.074321,1.086521,1.448350,-0.058992,0.948838,-2.428586,-0.588534,-5.022117,-3.522434,2.190938,0.144855,-0.109653,0.000000,-0.249418,-0.087578,0.000000
0.900000,-1.632238,-1.392914,-1.455911,0.442505,1.190932,0.073702,1.095755,1.423890,-0.064765,0.897486,-2.463291,-0.565812,-5.248090,-3.420529,2.351524,0.142346,-0.110513,0.000000,-0.252289,-0.082656,-0.000000
0.910000,-1.627758,-1.380933,-1.455177,0.453507,1.205047,0.073027,1.104464,1.399088,-0.070302,0.843900,-2.496985,-0.541439,-5.473499,-3.332024,2.497369,0.139809,-0.111322,0.000000,-0.255052,-0.077544,-0.000000
0.920000,-1.623168,-1.368813,-1.454451,0.464593,1.218913,0.072297,1.112625,1.373953,-0.075589,0.788044,-2.529911,-0.515790,-5.697299,-3.254975,2.630433,0.137245,-0.112079,0.000000,-0.257737,-0.072235,0.000000
0.930000,-1.618466,-1.356556,-1.453732,0.475757,1.232525,0.071516,1.120217,1.348492,-0.080613,0.729961,-2.562121,-0.488876,-5.918959,-3.188748,2.750040,0.134655,-0.112780,0.000000,-0.260351,-0.066732,0.000000
0.940000,-1.613652,-1.344164,-1.453021,0.486995,1.245882,0.070686,1.127217,1.322712,-0.085363,0.669674,-2.593720,-0.460836,-6.137949,-3.132705,2.855516,0.132038,-0.113425,0.000000,-0.262910,-0.061036,-0.000000
0.950000,-1.608726,-1.331639,-1.452318,0.498300,1.258979,0.069810,1.133603,1.296619,-0.089827,0.607212,-2.624807,-0.431815,-6.353737,-3.086212,2.946186,0.129397,-0.114011,0.000000,-0.265426,-0.055147,0.000000
0.960000,-1.603686,-1.318985,-1.451625,0.509665,1.271813,0.068890,1.139354,1.270218,-0.093995,0.542630,-2.655453,-0.401829,-6.566260,-3.049156,3.017981,0.126730,-0.114536,0.000000,-0.267908,-0.049070,-0.000000
0.970000,-1.598532,-1.306204,-1.450940,0.521084,1.284382,0.067931,1.144449,1.243511,-0.097861,0.475922,-2.685794,-0.371356,-6.774461,-3.020313,3.074034,0.124038,-0.115000,0.000000,-0.270378,-0.042799,-0.000000
0.980000,-1.593264,-1.293298,-1.450266,0.532552,1.296682,0.066934,1.148866,1.216503,-0.101420,0.407157,-2.715885,-0.340402,-6.977755,-2.998984,3.114087,0.121322,-0.115398,0.000000,-0.272842,-0.036338,0.000000
0.990000,-1.587881,-1.280271,-1.449602,0.544059,1.308711,0.065903,1.152585,1.189194,-0.104668,0.336386,-2.745796,-0.309129,-7.175551,-2.984468,3.137880,0.118582,-0.115731,0.000000,-0.275311,-0.029689,-0.000000
1.000000,-1.582383,-1.267125,-1.448948,0.555601,1.320465,0.064842,1.155587,1.161587,-0.107602,0.263666,-2.775594,-0.277699,-7.367264,-2.976066,3.145154,0.115816,-0.115996,0.000000,-0.277794,-0.022857,-0.000000
1.010000,-1.576769,-1.253863,-1.448305,0.567169,1.331942,0.063752,1.157852,1.133683,-0.110220,0.189074,-2.805342,-0.246134,-7.552594,-2.972924,3.131918,0.113026,-0.116191,0.000000,-0.280300,-0.015845,0.000000
1.020000,-1.571040,-1.240487,-1.447673,0.578755,1.343138,0.062638,1.159363,1.105480,-0.112526,0.112652,-2.835075,-0.214950,-7.730628,-2.974514,3.102100,0.110210,-0.116314,0.000000,-0.282837,-0.008650,-0.000000
1.030000,-1.565194,-1.227001,-1.447052,0.590353,1.354050,0.061503,1.160100,1.076981,-0.114521,0.034488,-2.864846,-0.184146,-7.900742,-2.980156,3.055899,0.107369,-0.116364,0.000000,-0.285412,-0.001281,-0.000000
1.040000,-1.559233,-1.213407,-1.446443,0.601955,1.364676,0.060349,1.160047,1.048183,-0.116210,-0.045335,-2.894690,-0.153886,-8.062314,-2.989169,2.993510,0.104502,-0.116339,0.000000,-0.288030,0.006259,0.000000
1.050000,-1.553155,-1.199708,-1.445845,0.613552,1.375013,0.059180,1.159188,1.019087,-0.117601,-0.126728,-2.924638,-0.124329,-8.214719,-3.000872,2.915132,0.101608,-0.116238,0.000000,-0.290697,0.013964,0.000000
1.060000,-1.546962,-1.185908,-1.445260,0.625136,1.385057,0.057998,1.157507,0.989690,-0.118698,-0.209599,-2.954737,-0.095492,-8.357279,-3.014003,2.817340,0.098688,-0.116058,0.000000,-0.293416,0.021827,-0.000000
1.070000,-1.540652,-1.172008,-1.444686,0.636699,1.394806,0.056806,1.154991,0.959992,-0.119514,-0.293841,-2.984949,-0.067871,-8.489433,-3.028533,2.704397,0.095740,-0.115799,0.000000,-0.296190,0.029845,0.000000
1.080000,-1.534228,-1.158013,-1.444123,0.648233,1.404256,0.055608,1.151626,0.929990,-0.120060,-0.379350,-3.015310,-0.041453,-8.610564,-3.043852,2.576943,0.092764,-0.115458,0.000000,-0.299022,0.038009,-0.000000
1.090000,-1.527688,-1.143924,-1.443573,0.659729,1.413405,0.054406,1.147400,0.899685,-0.120348,-0.466014,-3.045826,-0.016379,-8.720054,-3.059352,2.435620,0.089759,-0.115035,0.000000,-0.301911,0.046311,-0.000000
1.100000,-1.521033,-1.129746,-1.443035,0.671178,1.422249,0.053202,1.142303,0.869073,-0.120392,-0.553711,-3.076496,0.007215,-8.817286,-3.074422,2.281068,0.086725,-0.114528,0.000000,-0.304859,0.054742,-0.000000
1.110000,-1.514264,-1.115480,-1.442509,0.682572,1.430785,0.051999,1.136323,0.838154,-0.120207,-0.642340,-3.107345,0.029323,-8.901041,-3.087609,2.110843,0.083662,-0.113935,0.000000,-0.307868,0.063294,0.000000
1.120000,-1.507382,-1.101131,-1.441995,0.693901,1.439011,0.050799,1.129453,0.806926,-0.119812,-0.731714,-3.138281,0.049532,-8.971379,-3.099250,1.929050,0.080568,-0.113257,0.000000,-0.310929,0.071953,-0.000000
1.130000,-1.500387,-1.086701,-1.441493,0.705158,1.446923,0.049603,1.121686,0.775388,-0.119223,-0.821721,-3.169323,0.067869,-9.027757,-3.108839,1.736706,0.077443,-0.112491,0.000000,-0.314043,0.080710,0.000000
1.140000,-1.493279,-1.072194,-1.441003,0.716332,1.454517,0.048415,1.113017,0.743539,-0.118461,-0.912221,-3.200449,0.084234,-9.069633,-3.115869,1.534830,0.074287,-0.111638,0.000000,-0.317207,0.089552,-0.000000
1.150000,-1.486060,-1.057612,-1.440525,0.727415,1.461792,0.047235,1.103441,0.711379,-0.117545,-1.003064,-3.231630,0.098537,-9.096463,-3.119835,1.324441,0.071098,-0.110695,0.000000,-0.320416,0.098466,0.000000
1.160000,-1.478731,-1.042959,-1.440059,0.738398,1.468744,0.046064,1.092955,0.678906,-0.116496,-1.094151,-3.262874,0.110783,-9.106370,-3.119202,1.104415,0.067878,-0.109663,0.000000,-0.323668,0.107443,-0.000000
1.170000,-1.471293,-1.028238,-1.439604,0.749271,1.475369,0.044905,1.081558,0.646122,-0.115337,-1.185198,-3.294047,0.120700,-9.100309,-3.114617,0.878176,0.064625,-0.108541,0.000000,-0.326950,0.116457,-0.000000
1.180000,-1.463746,-1.013453,-1.439160,0.760026,1.481665,0.043758,1.069251,0.613025,-0.114090,-1.276102,-3.325152,0.128330,-9.077901,-3.105699,0.647005,0.061339,-0.107329,0.000000,-0.330259,0.125497,0.000000
1.190000,-1.456093,-0.998606,-1.438729,0.770653,1.487629,0.042624,1.056037,0.579619,-0.112778,-1.366700,-3.356145,0.133628,-9.038765,-3.092069,0.412182,0.058020,-0.106026,0.000000,-0.333586,0.134547,0.000000
1.200000,-1.448334,-0.983701,-1.438308,0.781144,1.493257,0.041503,1.041919,0.545903,-0.111425,-1.456821,-3.386977,0.136565,-8.982523,-3.073344,0.174991,0.054667,-0.104634,0.000000,-0.336924,0.143590,-0.000000
1.210000,-1.440470,-0.968742,-1.437898,0.791489,1.498546,0.040395,1.026902,0.511880,-0.110054,-1.546376,-3.417640,0.137156,-8.906662,-3.047970,-0.064098,0.051281,-0.103150,0.000000,-0.340269,0.152614,0.000000
1.220000,-1.432504,-0.953731,-1.437500,0.801679,1.503493,0.039301,1.010994,0.477551,-0.108690,-1.634990,-3.447969,0.135320,-8.813196,-3.016885,-0.302894,0.047862,-0.101577,0.000000,-0.343600,0.161583,-0.000000
1.230000,-1.424437,-0.938673,-1.437112,0.811706,1.508096,0.038221,0.994205,0.442921,-0.107356,-1.722581,-3.477958,0.131104,-8.702007,-2.979852,-0.540020,0.044409,-0.099915,0.000000,-0.346912,0.170485,0.000000
1.240000,-1.416271,-0.923571,-1.436735,0.821560,1.512351,0.037154,0.976546,0.407993,-0.106076,-1.808971,-3.507546,0.124530,-8.572976,-2.936635,-0.774093,0.040924,-0.098165,0.000000,-0.350195,0.179301,0.000000
1.250000,-1.408007,-0.908427,-1.436369,0.831234,1.516255,0.036099,0.958030,0.372772,-0.104873,-1.893981,-3.536669,0.115637,-8.425984,-2.886997,-1.003735,0.037405,-0.096327,0.000000,-0.353438,0.188009,0.000000
1.260000,-1.399647,-0.893247,-1.436013,0.840718,1.519805,0.035056,0.938671,0.337261,-0.103771,-1.977553,-3.565316,0.104442,-8.257813,-2.829388,-1.226739,0.033855,-0.094402,0.000000,-0.356635,0.196602,-0.000000
1.270000,-1.391193,-0.878032,-1.435668,0.850004,1.522999,0.034024,0.918485,0.301468,-0.102792,-2.059216,-3.593293,0.091089,-8.071824,-2.765046,-1.442652,0.030273,-0.092393,0.000000,-0.359761,0.205027,0.000000
1.280000,-1.382647,-0.862788,-1.435333,0.859085,1.525834,0.033000,0.897493,0.265398,-0.101956,-2.138931,-3.620594,0.075617,-7.868279,-2.693895,-1.650195,0.026660,-0.090300,0.000000,-0.362811,0.213277,0.000000
1.290000,-1.374012,-0.847517,-1.435008,0.867952,1.528306,0.031984,0.875714,0.229058,-0.101286,-2.216524,-3.647148,0.058117,-7.647438,-2.615860,-1.848091,0.023017,-0.088126,0.000000,-0.365772,0.221331,-0.000000
1.300000,-1.365289,-0.832223,-1.434693,0.876597,1.530414,0.030974,0.853170,0.192457,-0.100800,-2.291823,-3.672888,0.038692,-7.409564,-2.530863,-2.035059,0.019345,-0.085873,0.000000,-0.368634,0.229167,-0.000000
1.310000,-1.356481,-0.816910,-1.434389,0.885013,1.532155,0.029967,0.829884,0.155603,-0.100519,-2.364799,-3.697788,0.017360,-7.151405,-2.437665,-2.207381,0.015645,-0.083543,0.000000,-0.371388,0.236779,0.000000
1.320000,-1.347590,-0.801581,-1.434094,0.893192,1.533525,0.028963,0.805883,0.118505,-0.100459,-2.434954,-3.721670,-0.005521,-6.877164,-2.337498,-2.366517,0.011918,-0.081138,0.000000,-0.374011,0.244109,-0.000000
1.330000,-1.338618,-0.786240,-1.433809,0.901128,1.534524,0.027957,0.781194,0.081173,-0.100635,-2.502290,-3.744515,-0.029923,-6.587533,-2.230428,-2.511487,0.008165,-0.078661,0.000000,-0.376498,0.251154,-0.000000
1.340000,-1.329568,-0.770892,-1.433535,0.908814,1.535148,0.026949,0.755847,0.043618,-0.101062,-2.566656,-3.766256,-0.055700,-6.283204,-2.116522,-2.641311,0.004388,-0.076116,0.000000,-0.378836,0.257895,-0.000000
1.350000,-1.320442,-0.755539,-1.433270,0.916243,1.535395,0.025935,0.729872,0.005852,-0.101753,-2.627908,-3.786823,-0.082696,-5.964868,-1.995848,-2.755010,0.000589,-0.073504,0.000000,-0.381016,0.264312,0.000000
1.360000,-1.311244,-0.740185,-1.433016,0.923409,1.535264,0.024913,0.703300,-0.032115,-0.102721,-2.685862,-3.806200,-0.110891,-5.634394,-1.867228,-2.847869,-0.003232,-0.070831,0.000000,-0.383030,0.270382,-0.000000
1.370000,-1.301975,-0.724835,-1.432772,0.930307,1.534753,0.023880,0.676165,-0.070268,-0.103973,-2.740501,-3.824202,-0.139761,-5.291152,-1.732125,-2.923100,-0.007071,-0.068098,0.000000,-0.384859,0.276098,0.000000
1.380000,-1.292639,-0.709491,-1.432539,0.936931,1.533858,0.022833,0.648502,-0.108594,-0.105518,-2.791645,-3.840821,-0.169293,-4.935688,-1.590759,-2.980180,-0.010928,-0.065310,0.000000,-0.386497,0.281439,-0.000000
1.390000,-1.283237,-0.694159,-1.432316,0.943275,1.532580,0.021769,0.620345,-0.147079,-0.107361,-2.839175,-3.855997,-0.199302,-4.568548,-1.443349,-3.018586,-0.014800,-0.062470,0.000000,-0.387937,0.286388,-0.000000
1.400000,-1.273774,-0.678841,-1.432103,0.949336,1.530916,0.020684,0.591731,-0.185709,-0.109505,-2.882979,-3.869669,-0.229600,-4.190280,-1.290115,-3.037795,-0.018686,-0.059583,0.000000,-0.389171,0.290932,0.000000
1.410000,-1.264252,-0.663542,-1.431902,0.955109,1.528866,0.019577,0.562696,-0.224468,-0.111955,-2.923150,-3.881793,-0.260161,-3.796283,-1.130964,-3.033038,-0.022583,-0.056651,0.000000,-0.390192,0.295077,-0.000000
1.420000,-1.254673,-0.648265,-1.431712,0.960589,1.526427,0.018444,0.533281,-0.263339,-0.114708,-2.959103,-3.892284,-0.290385,-3.392882,-0.966465,-3.008559,-0.026489,-0.053681,0.000000,-0.390992,0.298760,-0.000000
1.430000,-1.245041,-0.633015,-1.431533,0.965773,1.523598,0.017282,0.503527,-0.302308,-0.117762,-2.990980,-3.901105,-0.320266,-2.981254,-0.796877,-2.964354,-0.030402,-0.050676,0.000000,-0.391567,0.301994,0.000000
1.440000,-1.235358,-0.617794,-1.431366,0.970658,1.520380,0.016088,0.473475,-0.341356,-0.121111,-3.018704,-3.908206,-0.349606,-2.562576,-0.622456,-2.900421,-0.034320,-0.047640,0.000000,-0.391914,0.304770,-0.000000
1.450000,-1.225629,-0.602608,-1.431211,0.975242,1.516771,0.014859,0.443167,-0.380466,-0.124751,-3.042212,-3.913539,-0.378209,-2.138026,-0.443460,-2.816757,-0.038240,-0.044578,0.000000,-0.392027,0.307081,-0.000000
1.460000,-1.215855,-0.587460,-1.431069,0.979521,1.512771,0.013592,0.412645,-0.419620,-0.128674,-3.061476,-3.917040,-0.406044,-1.708105,-0.260654,-2.709102,-0.042160,-0.041495,0.000000,-0.391902,0.308925,-0.000000
1.470000,-1.206039,-0.572354,-1.430940,0.983494,1.508379,0.012285,0.381952,-0.458801,-0.132868,-3.076392,-3.918716,-0.432517,-1.274749,-0.073727,-2.582231,-0.046077,-0.038396,0.000000,-0.391545,0.310290,0.000000
1.480000,-1.196186,-0.557294,-1.430824,0.987159,1.503595,0.010934,0.351132,-0.497988,-0.137320,-3.086964,-3.918502,-0.457626,-0.839218,0.117127,-2.436663,-0.049990,-0.035284,0.000000,-0.390950,0.311178,0.000000
1.490000,-1.186297,-0.542284,-1.430721,0.990516,1.498419,0.009538,0.320227,-0.537164,-0.142016,-3.093174,-3.916361,-0.481189,-0.402772,0.311711,-2.272914,-0.053895,-0.032166,0.000000,-0.390119,0.311588,-0.000000
1.500000,-1.176376,-0.527327,-1.430633,0.993564,1.492852,0.008093,0.289283,-0.576309,-0.146938,-3.095020,-3.912256,-0.503026,0.033331,0.509830,-2.091505,-0.057791,-0.029045,0.000000,-0.389051,0.311524,-0.000000
1.510000,-1.166427,-0.512428,-1.430560,0.996302,1.486893,0.006598,0.258344,-0.615403,-0.152071,-3.092277,-3.906154,-0.523116,0.461890,0.711306,-1.889060,-0.061675,-0.025927,0.000000,-0.387748,0.310965,-0.000000
1.520000,-1.156451,-0.497590,-1.430501,0.998731,1.480544,0.005051,0.227451,-0.654425,-0.157393,-3.085524,-3.898020,-0.540927,0.888312,0.915923,-1.670467,-0.065546,-0.022816,0.000000,-0.386214,0.309971,0.000000
1.530000,-1.146453,-0.482818,-1.430459,1.000851,1.473805,0.003450,0.196648,-0.693356,-0.162882,-3.074520,-3.887825,-0.556475,1.312064,1.123484,-1.436720,-0.069399,-0.019716,0.000000,-0.384452,0.308524,-0.000000
1.540000,-1.136435,-0.468116,-1.430432,1.002664,1.466677,0.001793,0.165975,-0.732175,-0.168515,-3.059294,-3.875541,-0.569614,1.732613,1.333791,-1.188814,-0.073234,-0.016632,0.000000,-0.382463,0.306628,-0.000000
1.550000,-1.126401,-0.453486,-1.430423,1.004171,1.459162,0.000079,0.135476,-0.770860,-0.174266,-3.039880,-3.861141,-0.580208,2.149427,1.546647,-0.927744,-0.077048,-0.013568,0.000000,-0.380254,0.304294,-0.000000
1.560000,-1.116353,-0.438934,-1.430431,1.005374,1.451260,-0.001693,0.105191,-0.809391,-0.180111,-3.016337,-3.844601,-0.588243,2.562409,1.761858,-0.651610,-0.080838,-0.010529,0.000000,-0.377827,0.301531,-0.000000
1.570000,-1.106295,-0.424462,-1.430457,1.006276,1.442974,-0.003523,0.075163,-0.847745,-0.186022,-2.988668,-3.825897,-0.593333,2.970537,1.979221,-0.364656,-0.084603,-0.007519,0.000000,-0.375190,0.298344,0.000000
1.580000,-1.096228,-0.410075,-1.430502,1.006879,1.434306,-0.005413,0.045431,-0.885901,-0.191968,-2.956944,-3.805010,-0.595505,3.373224,2.198540,-0.068229,-0.088341,-0.004542,0.000000,-0.372347,0.294747,0.000000
1.590000,-1.086158,-0.395777,-1.430566,1.007186,1.425257,-0.007363,0.016037,-0.923838,-0.197922,-2.921223,-3.781920,-0.594670,3.769885,2.419615,0.236320,-0.092050,-0.001602,0.000000,-0.369303,0.290749,-0.000000
1.600000,-1.076086,-0.381572,-1.430649,1.007201,1.415830,-0.009372,-0.012980,-0.961532,-0.203851,-2.881569,-3.756612,-0.590756,4.159932,2.642249,0.547644,-0.095727,0.001296,0.000000,-0.366066,0.286364,-0.000000
1.610000,-1.066015,-0.367462,-1.430753,1.006928,1.406027,-0.011440,-0.041581,-0.998963,-0.209727,-2.837974,-3.729070,-0.583762,4.540903,2.866230,0.865976,-0.099370,0.004150,0.000000,-0.362639,0.281596,0.000000
1.620000,-1.055948,-0.353452,-1.430878,1.006371,1.395852,-0.013566,-0.069727,-1.036106,-0.215516,-2.790692,-3.699283,-0.573494,4.914319,3.091376,1.188190,-0.102979,0.006955,0.000000,-0.359032,0.276475,0.000000
1.630000,-1.045888,-0.339546,-1.431025,1.005535,1.385306,-0.015750,-0.097382,-1.072941,-0.221186,-2.739714,-3.667239,-0.559990,5.279822,3.317489,1.512744,-0.106550,0.009708,0.000000,-0.355249,0.271006,-0.000000
1.640000,-1.035838,-0.325747,-1.431193,1.004425,1.374394,-0.017989,-0.124509,-1.109443,-0.226705,-2.685123,-3.632931,-0.543236,5.637058,3.544373,1.838095,-0.110083,0.012405,0.000000,-0.351297,0.265203,-0.000000
1.650000,-1.025801,-0.312059,-1.431385,1.003046,1.363119,-0.020283,-0.151073,-1.145592,-0.232040,-2.627002,-3.596350,-0.523231,5.985668,3.771832,2.162701,-0.113576,0.015043,0.000000,-0.347181,0.259078,-0.000000
1.660000,-1.015778,-0.298486,-1.431599,1.001405,1.351483,-0.022629,-0.177037,-1.181363,-0.237159,-2.565381,-3.557501,-0.499992,6.323818,3.999870,2.485084,-0.117026,0.017619,0.000000,-0.342908,0.252638,-0.000000
1.670000,-1.005774,-0.285031,-1.431837,0.999508,1.339493,-0.025025,-0.202369,-1.216734,-0.242029,-2.500490,-3.516361,-0.473545,6.652812,4.228064,2.803628,-0.120433,0.020129,0.000000,-0.338483,0.245912,-0.000000
1.680000,-0.995789,-0.271697,-1.432100,0.997360,1.327150,-0.027469,-0.227036,-1.251683,-0.246619,-2.432356,-3.472940,-0.443938,6.972474,4.456195,3.116782,-0.123796,0.022572,0.000000,-0.333911,0.238904,0.000000
1.690000,-0.985827,-0.258489,-1.432387,0.994969,1.314461,-0.029957,-0.251006,-1.286185,-0.250898,-2.361072,-3.427238,-0.411233,7.282630,4.684042,3.422996,-0.127111,0.024943,0.000000,-0.329198,0.231629,0.000000
1.700000,-0.975890,-0.245409,-1.432699,0.992342,1.301428,-0.032486,-0.274247,-1.320220,-0.254834,-2.286736,-3.379261,-0.375506,7.583103,4.911382,3.720718,-0.130379,0.027241,0.000000,-0.324349,0.224098,0.000000
1.710000,-0.965981,-0.232462,-1.433037,0.989487,1.288058,-0.035052,-0.296730,-1.353763,-0.258397,-2.209417,-3.329026,-0.336793,7.873054,5.138329,4.006921,-0.133598,0.029463,0.000000,-0.319369,0.216320,-0.000000
1.720000,-0.956101,-0.219649,-1.433400,0.986410,1.274355,-0.037652,-0.318426,-1.386793,-0.261560,-2.129278,-3.276512,-0.295340,8.153054,5.364287,4.281711,-0.136766,0.031606,0.000000,-0.314258,0.208314,0.000000
1.730000,-0.946254,-0.206976,-1.433790,0.983121,1.260324,-0.040282,-0.339307,-1.419286,-0.264295,-2.046389,-3.221745,-0.251202,8.423010,5.588995,4.543719,-0.139882,0.033668,0.000000,-0.309022,0.200087,-0.000000
1.740000,-0.936440,-0.194444,-1.434206,0.979627,1.245971,-0.042937,-0.359345,-1.451220,-0.266576,-1.960852,-3.164737,-0.204513,8.682826,5.812192,4.791575,-0.142946,0.035646,0.000000,-0.303664,0.191650,0.000000
1.750000,-0.926662,-0.182057,-1.434649,0.975937,1.231301,-0.045612,-0.378515,-1.482573,-0.268377,-1.872767,-3.105507,-0.155422,8.932410,6.033615,5.023908,-0.145955,0.037540,0.000000,-0.298187,0.183013,-0.000000
1.760000,-0.916922,-0.169819,-1.435118,0.972060,1.216321,-0.048303,-0.396792,-1.513323,-0.269676,-1.782246,-3.044086,-0.103977,9.171867,6.253360,5.236478,-0.148909,0.039345,0.000000,-0.292596,0.174188,-0.000000
1.770000,-0.907221,-0.157732,-1.435615,0.968004,1.201037,-0.051004,-0.414152,-1.543448,-0.270450,-1.689373,-2.980463,-0.050624,9.400879,6.470765,5.431138,-0.151807,0.041062,0.000000,-0.286886,0.165179,-0.000000
1.780000,-0.897562,-0.145799,-1.436138,0.963780,1.185454,-0.053710,-0.430573,-1.572925,-0.270682,-1.594263,-2.914679,0.004582,9.619328,6.685524,5.606868,-0.154647,0.042687,0.000000,-0.281061,0.155998,0.000000
1.790000,-0.887946,-0.134024,-1.436689,0.959396,1.169581,-0.056415,-0.446031,-1.601734,-0.270353,-1.497022,-2.846763,0.061447,9.827097,6.897332,5.762649,-0.157428,0.044219,0.000000,-0.275123,0.146652,0.000000
1.800000,-0.878375,-0.122409,-1.437267,0.954862,1.153422,-0.059115,-0.460506,-1.629853,-0.269448,-1.397757,-2.776744,0.119765,10.024067,7.105882,5.897463,-0.160149,0.045656,0.000000,-0.269072,0.137149,-0.000000
1.810000,-0.868849,-0.110956,-1.437871,0.950189,1.136986,-0.061802,-0.473980,-1.657262,-0.267952,-1.296611,-2.704667,0.179480,10.210981,7.311131,6.006325,-0.162809,0.046997,0.000000,-0.262912,0.127501,0.000000
1.820000,-0.859371,-0.099670,-1.438503,0.945386,1.120279,-0.064472,-0.486432,-1.683940,-0.265855,-1.193613,-2.630546,0.239994,10.386755,7.512480,6.092668,-0.165407,0.048240,0.000000,-0.256633,0.117706,-0.000000
1.830000,-0.849942,-0.088552,-1.439161,0.940464,1.103310,-0.067118,-0.497846,-1.709866,-0.263150,-1.088914,-2.554432,0.301257,10.551164,7.709592,6.155959,-0.167941,0.049383,0.000000,-0.250241,0.107774,-0.000000
1.840000,-0.840562,-0.077604,-1.439845,0.935433,1.086084,-0.069733,-0.508205,-1.735022,-0.259828,-0.982629,-2.476369,0.363035,10.703987,7.902129,6.195666,-0.170411,0.050425,0.000000,-0.243733,0.097712,-0.000000
1.850000,-0.831234,-0.066831,-1.440555,0.930303,1.068612,-0.072312,-0.517494,-1.759387,-0.255888,-0.874874,-2.396405,0.425089,10.844999,8.089755,6.211254,-0.172815,0.051365,0.000000,-0.237108,0.087527,0.000000
1.860000,-0.821957,-0.056233,-1.441291,0.925087,1.050899,-0.074849,-0.525699,-1.782944,-0.251324,-0.765812,-2.314593,0.487361,10.975080,8.272177,6.197544,-0.175153,0.052202,0.000000,-0.230368,0.077231,-0.000000
1.870000,-0.812732,-0.045813,-1.442052,0.919793,1.032956,-0.077337,-0.532806,-1.805673,-0.246142,-0.655463,-2.230983,0.549166,11.092768,8.449007,6.159220,-0.177422,0.052934,0.000000,-0.223503,0.066818,-0.000000
1.880000,-0.803561,-0.035575,-1.442838,0.914434,1.014789,-0.079769,-0.538804,-1.827558,-0.240343,-0.544000,-2.145633,0.610464,11.197706,8.619902,6.096317,-0.179623,0.053559,0.000000,-0.216516,0.056299,0.000000
1.890000,-0.794444,-0.025518,-1.443647,0.909021,0.996407,-0.082141,-0.543683,-1.848580,-0.233935,-0.431552,-2.058605,0.671010,11.289533,8.784518,6.008872,-0.181752,0.054078,0.000000,-0.209404,0.045682,-0.000000
1.900000,-0.785381,-0.015647,-1.444480,0.903564,0.977820,-0.084446,-0.547433,-1.868725,-0.226926,-0.318254,-1.969965,0.730560,11.367891,8.942514,5.896922,-0.183810,0.054488,0.000000,-0.202164,0.034973,-0.000000
1.910000,-0.776372,-0.005963,-1.445336,0.898076,0.959036,-0.086678,-0.550046,-1.887974,-0.219326,-0.204273,-1.879768,0.789058,11.433235,9.093275,5.755683,-0.185795,0.054789,0.000000,-0.194798,0.024185,0.000000
1.920000,-0.767419,0.003533,-1.446213,0.892567,0.940064,-0.088831,-0.551516,-1.906315,-0.211150,-0.089673,-1.788111,0.845809,11.484293,9.236761,5.590601,-0.187706,0.054980,0.000000,-0.187297,0.013314,0.000000
1.930000,-0.758521,0.012838,-1.447112,0.887049,0.920913,-0.090899,-0.551838,-1.923732,-0.202415,0.025364,-1.695058,0.900793,11.520608,9.372665,5.402302,-0.189541,0.055060,0.000000,-0.179661,0.002375,0.000000
1.940000,-0.749678,0.021951,-1.448031,0.881534,0.901592,-0.092877,-0.551008,-1.940212,-0.193141,0.140689,-1.600684,0.953780,11.541722,9.500674,5.191412,-0.191298,0.055028,0.000000,-0.171888,-0.008625,-0.000000
1.950000,-0.740890,0.030869,-1.448969,0.876033,0.882112,-0.094760,-0.549024,-1.955742,-0.183347,0.256146,-1.505072,1.004548,11.547176,9.620481,4.958559,-0.192978,0.054884,0.000000,-0.163977,-0.019676,0.000000
1.960000,-0.732157,0.039592,-1.449926,0.870558,0.862481,-0.096543,-0.545885,-1.970309,-0.173056,0.371578,-1.408273,1.053054,11.536513,9.731020,4.699955,-0.194578,0.054627,0.000000,-0.155926,-0.030767,0.000000
1.970000,-0.723479,0.048118,-1.450900,0.865119,0.842709,-0.098220,-0.541593,-1.983903,-0.162295,0.486821,-1.310447,1.098676,11.509274,9.832828,4.421180,-0.196096,0.054256,0.000000,-0.147732,-0.041889,0.000000
1.980000,-0.714855,0.056446,-1.451890,0.859730,0.822806,-0.099787,-0.536150,-1.996515,-0.151092,0.601707,-1.211646,1.141415,11.465002,9.925688,4.123399,-0.197532,0.053773,0.000000,-0.139395,-0.053030,-0.000000
1.990000,-0.706284,0.064574,-1.452895,0.854400,0.802782,-0.101240,-0.529560,-2.008133,-0.139477,0.716063,-1.111963,1.181085,11.403239,10.009384,3.807781,-0.198883,0.053175,0.000000,-0.130913,-0.064176,-0.000000
2.000000,-0.697767,0.072501,-1.453914,0.849142,0.782646,-0.102575,-0.521831,-2.018751,-0.127481,0.829712,-1.011490,1.217515,11.323526,10.083697,3.475491,-0.200149,0.052463,0.000000,-0.122286,-0.075314,0.000000
2.010000,-0.689301,0.080227,-1.454946,0.843967,0.762410,-0.103789,-0.512969,-2.028360,-0.115137,0.942518,-0.910269,1.250678,11.224241,10.147086,3.124288,-0.201329,0.051638,0.000000,-0.113512,-0.086433,0.000000
2.020000,-0.680887,0.087749,-1.455990,0.838887,0.742083,-0.104877,-0.502984,-2.036955,-0.102480,1.054186,-0.808521,1.280106,11.106234,10.200819,2.759164,-0.202419,0.050699,0.000000,-0.104596,-0.097508,-0.000000
2.030000,-0.672523,0.095068,-1.457043,0.833911,0.721674,-0.105837,-0.491889,-2.044529,-0.089547,1.164580,-0.706285,1.305820,10.969188,10.244843,2.381702,-0.203420,0.049647,0.000000,-0.095537,-0.108527,0.000000
2.040000,-0.664208,0.102183,-1.458106,0.829052,0.701195,-0.106667,-0.479697,-2.051079,-0.076376,1.273506,-0.603657,1.327704,10.812788,10.279102,1.993487,-0.204330,0.048483,0.000000,-0.086336,-0.119473,-0.000000
2.050000,-0.655942,0.109092,-1.459176,0.824321,0.680656,-0.107364,-0.466425,-2.056601,-0.063006,1.380770,-0.500736,1.345659,10.636718,10.303540,1.596101,-0.205146,0.047207,0.000000,-0.076996,-0.130326,-0.000000
2.060000,-0.647721,0.115795,-1.460253,0.819728,0.660067,-0.107927,-0.452087,-2.061093,-0.049475,1.486267,-0.397563,1.359675,10.438309,10.316697,1.189266,-0.205869,0.045821,0.000000,-0.067515,-0.141075,-0.000000
2.070000,-0.639547,0.122293,-1.461334,0.815283,0.639438,-0.108353,-0.436706,-2.064552,-0.035826,1.589574,-0.294371,1.369509,10.219888,10.320096,0.776657,-0.206496,0.044325,0.000000,-0.057906,-0.151680,0.000000
2.080000,-0.631415,0.128584,-1.462420,0.810997,0.618779,-0.108643,-0.420303,-2.066980,-0.022099,1.690598,-0.191194,1.375195,9.981428,10.313854,0.360086,-0.207027,0.042722,0.000000,-0.048168,-0.162127,-0.000000
2.090000,-0.623326,0.134669,-1.463507,0.806880,0.598102,-0.108795,-0.402903,-2.068377,-0.008336,1.789136,-0.088126,1.376703,9.722902,10.298087,-0.058634,-0.207459,0.041013,0.000000,-0.038307,-0.172396,-0.000000
2.100000,-0.615277,0.140546,-1.464595,0.802942,0.577415,-0.108810,-0.384530,-2.068743,0.005421,1.884989,0.014737,1.374021,9.444282,10.272913,-0.477693,-0.207792,0.039199,0.000000,-0.028327,-0.182462,-0.000000
2.110000,-0.607267,0.146217,-1.465683,0.799192,0.556730,-0.108687,-0.365211,-2.068082,0.019130,1.978084,0.117344,1.367152,9.142283,10.237377,-0.895216,-0.208025,0.037284,0.000000,-0.018233,-0.192314,-0.000000
2.120000,-0.599293,0.151681,-1.466768,0.795641,0.536057,-0.108428,-0.344978,-2.066398,0.032750,2.067914,0.219502,1.356125,8.820535,10.192798,-1.309460,-0.208157,0.035269,0.000000,-0.008039,-0.201897,0.000000
2.130000,-0.591353,0.156938,-1.467851,0.792296,0.515406,-0.108032,-0.323864,-2.063694,0.046239,2.154430,0.321170,1.340980,8.479411,10.139426,-1.718621,-0.208186,0.033158,0.000000,0.002250,-0.211202,0.000000
2.140000,-0.583446,0.161989,-1.468929,0.789166,0.494786,-0.107503,-0.301901,-2.059976,0.059556,2.237439,0.422262,1.321776,8.119284,10.077509,-2.120894,-0.208111,0.030953,0.000000,0.012626,-0.220201,-0.000000
2.150000,-0.575569,0.166834,-1.470000,0.786261,0.474209,-0.106842,-0.279127,-2.055251,0.072661,2.316753,0.522693,1.298591,7.740525,10.007294,-2.514475,-0.207933,0.028658,0.000000,0.023078,-0.228871,0.000000
2.160000,-0.567720,0.171473,-1.471065,0.783586,0.453685,-0.106051,-0.255578,-2.049525,0.085514,2.392333,0.622412,1.271438,7.339861,9.928252,-2.895455,-0.207650,0.026276,0.000000,0.033602,-0.237200,-0.000000
2.170000,-0.559896,0.175908,-1.472121,0.781151,0.433222,-0.105133,-0.231294,-2.042805,0.098078,2.463655,0.721267,1.240628,6.921756,9.841504,-3.264392,-0.207261,0.023811,0.000000,0.044176,-0.245128,-0.000000
2.180000,-0.552096,0.180138,-1.473167,0.778963,0.412832,-0.104090,-0.206319,-2.035102,0.110315,2.530713,0.819217,1.206195,6.487029,9.747395,-3.619737,-0.206766,0.021267,0.000000,0.054791,-0.252646,0.000000
2.190000,-0.544316,0.184165,-1.474202,0.777027,0.392523,-0.102928,-0.180695,-2.026424,0.122190,2.593343,0.916191,1.168284,6.036498,9.646268,-3.959944,-0.206165,0.018650,0.000000,0.065438,-0.259731,-0.000000
2.200000,-0.536555,0.187989,-1.475225,0.775351,0.372307,-0.101648,-0.154467,-2.016782,0.133669,2.651393,1.012121,1.127052,5.570982,9.538467,-4.283466,-0.205457,0.015962,0.000000,0.076101,-0.266357,0.000000
2.210000,-0.528808,0.191611,-1.476235,0.773940,0.352191,-0.100256,-0.127681,-2.006185,0.144719,2.704842,1.107014,1.082519,5.088097,9.422454,-4.584826,-0.204643,0.013210,0.000000,0.086778,-0.272516,0.000000
2.220000,-0.521075,0.195033,-1.477230,0.772799,0.332186,-0.098755,-0.100387,-1.994646,0.155310,2.753254,1.200634,1.035244,4.592256,9.300685,-4.866887,-0.203722,0.010397,0.000000,0.097431,-0.278154,0.000000
2.230000,-0.513352,0.198255,-1.478210,0.771933,0.312301,-0.097151,-0.072633,-1.982176,0.165415,2.796648,1.293011,0.985250,4.084669,9.173734,-5.128584,-0.202694,0.007531,0.000000,0.108056,-0.283265,0.000000
2.240000,-0.505635,0.201279,-1.479173,0.771348,0.292545,-0.095448,-0.044471,-1.968790,0.175007,2.834913,1.384094,0.932744,3.566546,9.042175,-5.368852,-0.201561,0.004616,0.000000,0.118639,-0.287830,0.000000
2.250000,-0.497924,0.204107,-1.480118,0.771045,0.272928,-0.093653,-0.015952,-1.954499,0.184062,2.867948,1.473841,0.877947,3.039099,8.906582,-5.586625,-0.200321,0.001657,0.000000,0.129167,-0.291833,-0.000000
2.260000,-0.490214,0.206739,-1.481046,0.771030,0.253458,-0.091769,0.012872,-1.939318,0.192557,2.895774,1.562163,0.820885,2.500835,8.768802,-5.775657,-0.198977,-0.001338,0.000000,0.139623,-0.295267,-0.000000
2.270000,-0.482502,0.209176,-1.481953,0.771303,0.234145,-0.089803,0.041945,-1.923260,0.200474,2.918063,1.649150,0.762283,1.955998,8.627982,-5.940697,-0.197529,-0.004365,0.000000,0.149996,-0.298093,0.000000
2.280000,-0.474787,0.211422,-1.482841,0.771869,0.214996,-0.087762,0.071215,-1.906340,0.207797,2.934878,1.734714,0.702152,1.406129,8.484538,-6.081312,-0.195978,-0.007416,0.000000,0.160270,-0.300311,-0.000000
2.290000,-0.467064,0.213477,-1.483708,0.772728,0.196021,-0.085650,0.100624,-1.888571,0.214512,2.946174,1.818833,0.640740,0.852770,8.338890,-6.197072,-0.194324,-0.010486,0.000000,0.170432,-0.301912,-0.000000
2.300000,-0.459331,0.215343,-1.484554,0.773882,0.177228,-0.083473,0.130120,-1.869968,0.220608,2.951927,1.901486,0.578295,0.297462,8.191454,-6.287545,-0.192570,-0.013568,0.000000,0.180469,-0.302890,-0.000000
2.310000,-0.451585,0.217022,-1.485378,0.775331,0.158624,-0.081239,0.159645,-1.850546,0.226073,2.952149,1.982617,0.514853,-0.258939,8.043666,-6.346701,-0.190715,-0.016656,0.000000,0.190367,-0.303241,0.000000
2.320000,-0.443823,0.218516,-1.486179,0.777075,0.140219,-0.078954,0.189144,-1.830321,0.230904,2.946782,2.062311,0.451196,-0.814122,7.894803,-6.380393,-0.188763,-0.019743,0.000000,0.200113,-0.302957,-0.000000
2.330000,-0.436043,0.219827,-1.486957,0.779113,0.122020,-0.076623,0.218562,-1.809305,0.235097,2.935876,2.140511,0.387329,-1.366461,7.745159,-6.388875,-0.186714,-0.022823,0.000000,0.209696,-0.302043,0.000000
2.340000,-0.428240,0.220957,-1.487711,0.781445,0.104036,-0.074254,0.247843,-1.787515,0.238651,2.919468,2.217212,0.323502,-1.914331,7.595029,-6.372400,-0.184569,-0.025888,0.000000,0.219104,-0.300500,-0.000000
2.350000,-0.420413,0.221909,-1.488442,0.784069,0.086273,-0.071853,0.276933,-1.764966,0.241568,2.897610,2.292411,0.259963,-2.456107,7.444706,-6.331222,-0.182332,-0.028934,0.000000,0.228328,-0.298334,0.000000
2.360000,-0.412558,0.222683,-1.489148,0.786983,0.068739,-0.069425,0.305777,-1.741672,0.243850,2.870311,2.366162,0.196758,-2.988623,7.293079,-6.260530,-0.180003,-0.031954,0.000000,0.237365,-0.295546,-0.000000
2.370000,-0.404672,0.223284,-1.489830,0.790184,0.051442,-0.066978,0.334322,-1.717648,0.245506,2.837799,2.438337,0.134605,-3.511982,7.142019,-6.166264,-0.177586,-0.034940,0.000000,0.246187,-0.292162,-0.000000
2.380000,-0.396753,0.223713,-1.490488,0.793669,0.034388,-0.064517,0.362516,-1.692910,0.246545,2.800106,2.509006,0.073509,-4.024748,6.991993,-6.049297,-0.175080,-0.037888,0.000000,0.254795,-0.288189,-0.000000
2.390000,-0.388798,0.223973,-1.491120,0.797433,0.017586,-0.062049,0.390307,-1.667473,0.246980,2.757345,2.578182,0.013692,-4.525483,6.843465,-5.910505,-0.172490,-0.040792,0.000000,0.263184,-0.283640,-0.000000
2.400000,-0.380804,0.224066,-1.491729,0.801473,0.001041,-0.059579,0.417646,-1.641351,0.246824,2.709642,2.645882,-0.044631,-5.012751,6.696902,-5.750760,-0.169818,-0.043645,0.000000,0.271349,-0.278533,0.000000
2.410000,-0.372768,0.223994,-1.492312,0.805784,-0.015239,-0.057114,0.444483,-1.614561,0.246091,2.657024,2.712028,-0.101400,-5.482201,6.555305,-5.567301,-0.167064,-0.046442,0.000000,0.279278,-0.272875,-0.000000
2.420000,-0.364687,0.223762,-1.492871,0.810361,-0.031248,-0.054659,0.470771,-1.587115,0.244802,2.599921,2.776883,-0.156077,-5.935667,6.416294,-5.365084,-0.164233,-0.049177,0.000000,0.286987,-0.266715,0.000000
2.430000,-0.356559,0.223370,-1.493405,0.815198,-0.046979,-0.052220,0.496466,-1.559028,0.242977,2.538367,2.840363,-0.208644,-6.372069,6.280025,-5.145429,-0.161325,-0.051847,0.000000,0.294468,-0.260062,0.000000
2.440000,-0.348382,0.222823,-1.493915,0.820288,-0.062426,-0.049801,0.521524,-1.530312,0.240637,2.472540,2.902494,-0.258932,-6.790327,6.146654,-4.909655,-0.158344,-0.054446,0.000000,0.301718,-0.252941,0.000000
2.450000,-0.340153,0.222123,-1.494401,0.825626,-0.077583,-0.047409,0.545903,-1.500982,0.237806,2.402625,2.963306,-0.306788,-7.189360,6.016335,-4.659081,-0.155292,-0.056968,0.000000,0.308740,-0.245376,0.000000
2.460000,-0.331869,0.221272,-1.494864,0.831204,-0.092444,-0.045047,0.569562,-1.471052,0.234509,2.328647,3.022724,-0.352132,-7.563702,5.891925,-4.393436,-0.152170,-0.059411,0.000000,0.315526,-0.237376,-0.000000
2.470000,-0.323528,0.220275,-1.495302,0.837015,-0.107002,-0.042720,0.592464,-1.440532,0.230773,2.251225,3.081034,-0.394688,-7.917197,5.770547,-4.115825,-0.148982,-0.061770,0.000000,0.322101,-0.229012,0.000000
2.480000,-0.315128,0.219133,-1.495718,0.843051,-0.121253,-0.040433,0.614575,-1.409435,0.226625,2.170374,3.138145,-0.434414,-8.249301,5.652028,-3.827765,-0.145729,-0.064042,0.000000,0.328459,-0.220290,0.000000
2.490000,-0.306666,0.217851,-1.496111,0.849303,-0.135189,-0.038189,0.635861,-1.377773,0.222094,2.086312,3.194083,-0.471213,-8.559473,5.536191,-3.530768,-0.142413,-0.066222,0.000000,0.334603,-0.211240,-0.000000
2.500000,-0.298141,0.216431,-1.496482,0.855765,-0.148806,-0.035992,0.656291,-1.345557,0.217211,1.999260,3.248877,-0.505004,-8.847167,5.422860,-3.226351,-0.139038,-0.068309,0.000000,0.340539,-0.201890,-0.000000
2.510000,-0.289550,0.214876,-1.496831,0.862426,-0.162098,-0.033846,0.675835,-1.312800,0.212005,1.909275,3.302498,-0.535699,-9.107547,5.313141,-2.916559,-0.135603,-0.070298,0.000000,0.346265,-0.192251,0.000000
2.520000,-0.280892,0.213190,-1.497159,0.869279,-0.175060,-0.031753,0.694468,-1.279511,0.206507,1.816994,3.355089,-0.563297,-9.344891,5.205422,-2.602310,-0.132113,-0.072188,0.000000,0.351802,-0.182394,-0.000000
2.530000,-0.272164,0.211376,-1.497466,0.876313,-0.187687,-0.029716,0.712167,-1.245702,0.200749,1.722454,3.406612,-0.587735,-9.559182,5.099371,-2.285054,-0.128568,-0.073977,0.000000,0.357147,-0.172328,0.000000
2.540000,-0.263365,0.209437,-1.497754,0.883519,-0.199973,-0.027739,0.728911,-1.211382,0.194763,1.625887,3.457081,-0.608993,-9.750402,4.994656,-1.966240,-0.124971,-0.075663,0.000000,0.362308,-0.162081,0.000000
2.550000,-0.254493,0.207378,-1.498021,0.890888,-0.211913,-0.025822,0.744679,-1.176563,0.188580,1.527523,3.506508,-0.627060,-9.918536,4.890944,-1.647318,-0.121322,-0.077244,0.000000,0.367290,-0.151680,-0.000000
2.560000,-0.245547,0.205200,-1.498270,0.898409,-0.223502,-0.023968,0.759455,-1.141256,0.182233,1.427462,3.554863,-0.641859,-10.060248,4.788880,-1.331884,-0.117625,-0.078719,0.000000,0.372094,-0.141140,0.000000
2.570000,-0.236525,0.202909,-1.498501,0.906073,-0.234736,-0.022178,0.773224,-1.105469,0.175753,1.326246,3.602243,-0.653610,-10.179246,4.687036,-1.018979,-0.113881,-0.080086,0.000000,0.376738,-0.130518,-0.000000
2.580000,-0.227425,0.200507,-1.498714,0.913870,-0.245610,-0.020453,0.785976,-1.069214,0.169172,1.223951,3.648603,-0.662250,-10.275918,4.584963,-0.709789,-0.110091,-0.081346,0.000000,0.381223,-0.119824,0.000000
2.590000,-0.218247,0.197998,-1.498910,0.921790,-0.256119,-0.018794,0.797700,-1.032501,0.162519,1.120800,3.693940,-0.667822,-10.350653,4.482208,-0.405501,-0.106257,-0.082497,0.000000,0.385554,-0.109083,-0.000000
2.600000,-0.208989,0.195386,-1.499090,0.929821,-0.266259,-0.017203,0.808390,-0.995339,0.155825,1.017010,3.738244,-0.670381,-10.403841,4.378320,-0.107303,-0.102381,-0.083540,0.000000,0.389736,-0.098319,-0.000000
2.610000,-0.199650,0.192674,-1.499254,0.937954,-0.276025,-0.015678,0.818038,-0.957740,0.149122,0.912709,3.781496,-0.669873,-10.433732,4.272977,0.180599,-0.098463,-0.084474,0.000000,0.393771,-0.087547,0.000000
2.620000,-0.190229,0.189866,-1.499404,0.946178,-0.285412,-0.014220,0.826643,-0.919713,0.142437,0.808308,3.823691,-0.666661,-10.443116,4.165584,0.460408,-0.094506,-0.085299,0.000000,0.397668,-0.076806,0.000000
2.630000,-0.180726,0.186967,-1.499539,0.954483,-0.294417,-0.012829,0.834204,-0.881269,0.135798,0.703913,3.864799,-0.660695,-10.432645,4.055672,0.731307,-0.090510,-0.086017,0.000000,0.401430,-0.066108,0.000000
2.640000,-0.171139,0.183979,-1.499661,0.962859,-0.303036,-0.011504,0.840722,-0.842420,0.129232,0.599719,3.904794,-0.652067,-10.402968,3.942776,0.992478,-0.086477,-0.086627,0.000000,0.405058,-0.055472,0.000000
2.650000,-0.161469,0.180907,-1.499769,0.971294,-0.311264,-0.010244,0.846200,-0.803177,0.122765,0.495916,3.943643,-0.640880,-10.354739,3.826427,1.243105,-0.082409,-0.087131,0.000000,0.408555,-0.044917,0.000000
2.660000,-0.151713,0.177755,-1.499866,0.979779,-0.319098,-0.009048,0.850642,-0.763551,0.116424,0.392644,3.981335,-0.627117,-10.287574,3.705531,1.479198,-0.078307,-0.087529,0.000000,0.411925,-0.034456,0.000000
2.670000,-0.141873,0.174527,-1.499951,0.988304,-0.326534,-0.007915,0.854055,-0.723555,0.110231,0.290175,4.017768,-0.611194,-10.203285,3.580325,1.703501,-0.074171,-0.087823,0.000000,0.415164,-0.024114,0.000000
2.680000,-0.131947,0.171226,-1.500024,0.996857,-0.333568,-0.006843,0.856449,-0.683200,0.104207,0.188632,4.052926,-0.593088,-10.102649,3.450421,1.915587,-0.070004,-0.088013,0.000000,0.418276,-0.013900,0.000000
2.690000,-0.121936,0.167857,-1.500088,1.005429,-0.340197,-0.005830,0.857832,-0.642501,0.098376,0.088174,4.086759,-0.572924,-9.986443,3.315427,2.115026,-0.065806,-0.088102,0.000000,0.421260,-0.003830,0.000000
2.700000,-0.111839,0.164423,-1.500141,1.014010,-0.346417,-0.004875,0.858216,-0.601470,0.092755,-0.011047,4.119216,-0.550831,-9.855445,3.174954,2.301389,-0.061579,-0.088090,0.000000,0.424114,0.006084,-0.000000
2.710000,-0.101656,0.160930,-1.500185,1.022590,-0.352225,-0.003974,0.857615,-0.560120,0.087366,-0.108894,4.150289,-0.526832,-9.710279,3.027331,2.471472,-0.057324,-0.087980,0.000000,0.426841,0.015830,0.000000
2.720000,-0.091387,0.157380,-1.500221,1.031159,-0.357619,-0.003127,0.856043,-0.518469,0.082224,-0.205216,4.179799,-0.501323,-9.551896,2.873605,2.627962,-0.053043,-0.087774,0.000000,0.429429,0.025398,0.000000
2.730000,-0.081033,0.153779,-1.500248,1.039708,-0.362594,-0.002329,0.853516,-0.476530,0.077345,-0.299891,4.207740,-0.474318,-9.381090,2.713544,2.770773,-0.048736,-0.087472,0.000000,0.431880,0.034778,-0.000000
2.740000,-0.070593,0.150130,-1.500268,1.048227,-0.367148,-0.001579,0.850051,-0.434319,0.072742,-0.392799,4.234048,-0.445953,-9.198659,2.546915,2.899816,-0.044406,-0.087078,0.000000,0.434189,0.043959,-0.000000
2.750000,-0.060068,0.146437,-1.500280,1.056706,-0.371279,-0.000873,0.845667,-0.391854,0.068430,-0.483828,4.258656,-0.416368,-9.005399,2.373484,3.015003,-0.040053,-0.086593,0.000000,0.436353,0.052935,-0.000000
2.760000,-0.049459,0.142706,-1.500285,1.065137,-0.374985,-0.000209,0.840382,-0.349151,0.064420,-0.572852,4.281565,-0.385617,-8.802646,2.191229,3.114162,-0.035679,-0.086019,0.000000,0.438373,0.061694,-0.000000
2.770000,-0.038766,0.138939,-1.500284,1.073511,-0.378262,0.000416,0.834217,-0.306229,0.060721,-0.659825,4.302537,-0.354037,-8.590590,2.001926,3.199544,-0.031286,-0.085359,0.000000,0.440229,0.070238,0.000000
2.780000,-0.027989,0.135142,-1.500277,1.081818,-0.381109,0.001006,0.827192,-0.263107,0.057341,-0.744635,4.321580,-0.321672,-8.369961,1.805560,3.271315,-0.026875,-0.084615,0.000000,0.441921,0.078556,-0.000000
2.790000,-0.017129,0.131318,-1.500264,1.090052,-0.383523,0.001564,0.819331,-0.219804,0.054289,-0.827198,4.338625,-0.288656,-8.141489,1.602117,3.329642,-0.022448,-0.083788,0.000000,0.443444,0.086643,-0.000000
2.800000,-0.006188,0.127473,-1.500246,1.098202,-0.385504,0.002093,0.810656,-0.176341,0.051570,-0.907441,4.353599,-0.255123,-7.905904,1.391584,3.374693,-0.018007,-0.082882,0.000000,0.444791,0.094495,-0.000000
2.810000,0.004834,0.123610,-1.500222,1.106262,-0.387050,0.002597,0.801191,-0.132739,0.049189,-0.985275,4.366473,-0.221154,-7.664457,1.172935,3.405332,-0.013553,-0.081899,0.000000,0.445959,0.102104,-0.000000
2.820000,0.015937,0.119733,-1.500194,1.114224,-0.388159,0.003078,0.790959,-0.089019,0.047148,-1.060688,4.377080,-0.187001,-7.417293,0.947291,3.423188,-0.009088,-0.080841,0.000000,0.446933,0.109474,-0.000000
2.830000,0.027118,0.115848,-1.500161,1.122079,-0.388830,0.003541,0.779985,-0.045205,0.045449,-1.133604,4.385395,-0.152732,-7.165079,0.714761,3.428586,-0.004615,-0.079710,0.000000,0.447708,0.116598,0.000000
2.840000,0.038378,0.111958,-1.500123,1.129821,-0.389062,0.003988,0.768295,-0.001319,0.044093,-1.203975,4.391352,-0.118470,-6.908480,0.475457,3.421853,-0.000135,-0.078509,0.000000,0.448277,0.123474,0.000000
2.850000,0.049714,0.108068,-1.500081,1.137442,-0.388856,0.004424,0.755914,0.042614,0.043079,-1.271761,4.394882,-0.084334,-6.648163,0.229487,3.403316,0.004350,-0.077241,0.000000,0.448632,0.130099,-0.000000
2.860000,0.061126,0.104182,-1.500035,1.144937,-0.388210,0.004851,0.742870,0.086572,0.042406,-1.336851,4.396076,-0.050420,-6.386743,-0.026969,3.372749,0.008837,-0.075908,0.000000,0.448782,0.136464,0.000000
2.870000,0.072613,0.100305,-1.499984,1.152298,-0.387125,0.005273,0.729186,0.130527,0.042070,-1.399400,4.394499,-0.016892,-6.122698,-0.289390,3.331097,0.013325,-0.074513,0.000000,0.448681,0.142586,0.000000
2.880000,0.084172,0.096441,-1.499929,1.159519,-0.385600,0.005693,0.714890,0.174453,0.042066,-1.459297,4.390270,0.016166,-5.856455,-0.557184,3.278755,0.017810,-0.073057,0.000000,0.448339,0.148457,0.000000
2.890000,0.095803,0.092595,-1.499870,1.166594,-0.383636,0.006115,0.700009,0.218323,0.042391,-1.516523,4.383339,0.048649,-5.588443,-0.829760,3.216116,0.022291,-0.071544,0.000000,0.447749,0.154074,0.000000
2.900000,0.107503,0.088770,-1.499807,1.173517,-0.381233,0.006542,0.684569,0.262110,0.043037,-1.571062,4.373661,0.080456,-5.319088,-1.106526,3.143574,0.026764,-0.069976,0.000000,0.446905,0.159437,-0.000000
2.910000,0.119272,0.084972,-1.499739,1.180283,-0.378394,0.006977,0.668597,0.305787,0.043998,-1.622909,4.361150,0.111496,-5.048630,-1.385713,3.061354,0.031228,-0.068355,0.000000,0.445795,0.164546,-0.000000
2.920000,0.131108,0.081204,-1.499667,1.186887,-0.375118,0.007423,0.652120,0.349324,0.045264,-1.672041,4.345883,0.141660,-4.777708,-1.668052,2.970039,0.035679,-0.066684,0.000000,0.444425,0.169400,-0.000000
2.930000,0.143010,0.077471,-1.499591,1.193324,-0.371408,0.007883,0.635165,0.392695,0.046828,-1.718463,4.327780,0.170868,-4.506771,-1.953098,2.870045,0.040116,-0.064966,0.000000,0.442785,0.173999,-0.000000
2.940000,0.154974,0.073777,-1.499510,1.199589,-0.367265,0.008361,0.617760,0.435870,0.048678,-1.762178,4.306814,0.199033,-4.236270,-2.240403,2.761787,0.044534,-0.063202,0.000000,0.440868,0.178344,0.000000
2.950000,0.167001,0.070127,-1.499424,1.205678,-0.362691,0.008858,0.599930,0.478821,0.050805,-1.803192,4.282966,0.226077,-3.966656,-2.529522,2.645679,0.048932,-0.061396,0.000000,0.438670,0.182436,0.000000
2.960000,0.179087,0.066525,-1.499332,1.211586,-0.357689,0.009378,0.581705,0.521519,0.053196,-1.841503,4.256177,0.251918,-3.698693,-2.818942,2.522249,0.053307,-0.059550,0.000000,0.436183,0.186273,-0.000000
2.970000,0.191232,0.062974,-1.499236,1.217311,-0.352262,0.009923,0.563109,0.563935,0.055839,-1.877157,4.226536,0.276494,-3.432479,-3.109412,2.391786,0.057655,-0.057666,0.000000,0.433412,0.189861,-0.000000
2.980000,0.203433,0.059481,-1.499134,1.222847,-0.346412,0.010495,0.544170,0.606040,0.058721,-1.910160,4.193986,0.299731,-3.168426,-3.400617,2.254688,0.061974,-0.055747,0.000000,0.430348,0.193198,-0.000000
2.990000,0.215688,0.056048,-1.499026,1.228193,-0.340142,0.011098,0.524915,0.647805,0.061829,-1.940534,4.158522,0.321566,-2.906945,-3.692240,2.111357,0.066261,-0.053796,0.000000,0.426990,0.196288,-0.000000
3.000000,0.227996,0.052679,-1.498912,1.233345,-0.333457,0.011732,0.505368,0.689201,0.065147,-1.968309,4.120141,0.341939,-2.648449,-3.983965,1.962194,0.070513,-0.051814,0.000000,0.423332,0.199132,0.000000
3.010000,0.240354,0.049380,-1.498791,1.238299,-0.326360,0.012401,0.485558,0.730200,0.068662,-1.993435,4.078964,0.360781,-2.395373,-4.278519,1.807882,0.074727,-0.049804,0.000000,0.419385,0.201723,0.000000
3.020000,0.252761,0.046153,-1.498664,1.243055,-0.318854,0.013106,0.465508,0.770770,0.072358,-2.016138,4.034709,0.378067,-2.145857,-4.572170,1.648505,0.078899,-0.047769,0.000000,0.415117,0.204085,0.000000
3.030000,0.265215,0.043004,-1.498529,1.247609,-0.310946,0.013849,0.445244,0.810884,0.076218,-2.036364,3.987526,0.393735,-1.900066,-4.864229,1.484427,0.083028,-0.045710,0.000000,0.410541,0.206210,0.000000
3.040000,0.277713,0.039936,-1.498387,1.251959,-0.302638,0.014631,0.424789,0.850511,0.080227,-2.054152,3.937432,0.407741,-1.658163,-5.154008,1.316015,0.087109,-0.043631,0.000000,0.405656,0.208100,0.000000
3.050000,0.290253,0.036953,-1.498236,1.256104,-0.293937,0.015454,0.404169,0.889623,0.084367,-2.069541,3.884455,0.420042,-1.420313,-5.440818,1.143634,0.091140,-0.041533,0.000000,0.400462,0.209760,-0.000000
3.060000,0.302834,0.034058,-1.498077,1.260042,-0.284848,0.016319,0.383406,0.928190,0.088622,-2.082579,3.828571,0.430597,-1.186517,-5.722538,0.967775,0.095117,-0.039419,0.000000,0.394953,0.211191,-0.000000
3.070000,0.315454,0.031257,-1.497910,1.263772,-0.275375,0.017227,0.362525,0.966185,0.092973,-2.093293,3.769955,0.439382,-0.957122,-6.000086,0.788663,0.099038,-0.037291,0.000000,0.389147,0.212395,0.000000
3.080000,0.328109,0.028552,-1.497733,1.267292,-0.265526,0.018179,0.341548,1.003580,0.097404,-2.101737,3.708585,0.446360,-0.732311,-6.272950,0.606650,0.102899,-0.035151,0.000000,0.383037,0.213377,0.000000
3.090000,0.340799,0.025948,-1.497546,1.270603,-0.255306,0.019175,0.320497,1.040348,0.101894,-2.107955,3.644513,0.451506,-0.512269,-6.540616,0.422086,0.106698,-0.033001,0.000000,0.376627,0.214139,-0.000000
3.100000,0.353520,0.023447,-1.497349,1.273702,-0.244721,0.020217,0.299396,1.076462,0.106427,-2.111998,3.577792,0.454795,-0.297179,-6.802571,0.235322,0.110431,-0.030844,0.000000,0.369921,0.214684,-0.000000
3.110000,0.366272,0.021055,-1.497141,1.276590,-0.233779,0.021304,0.278265,1.111895,0.110984,-2.113900,3.508453,0.456207,-0.087629,-7.057552,0.046682,0.114095,-0.028682,0.000000,0.362920,0.215015,-0.000000
3.120000,0.379051,0.018773,-1.496923,1.279267,-0.222486,0.022436,0.257125,1.146622,0.115545,-2.113751,3.436630,0.455725,0.116649,-7.305887,-0.143454,0.117688,-0.026517,0.000000,0.355636,0.215139,-0.000000
3.130000,0.391857,0.016606,-1.496693,1.281733,-0.210849,0.023615,0.235996,1.180619,0.120092,-2.111585,3.362358,0.453335,0.315522,-7.547154,-0.334732,0.121207,-0.024350,0.000000,0.348070,0.215059,0.000000
3.140000,0.404685,0.014557,-1.496450,1.283987,-0.198876,0.024838,0.214900,1.213862,0.124606,-2.107459,3.285712,0.449027,0.508854,-7.780932,-0.526797,0.124649,-0.022184,0.000000,0.340230,0.214777,0.000000
3.150000,0.417536,0.012630,-1.496196,1.286031,-0.186574,0.026107,0.193854,1.246326,0.129066,-2.101427,3.206766,0.442797,0.696512,-8.006798,-0.719297,0.128011,-0.020022,0.000000,0.332121,0.214298,-0.000000
3.160000,0.430405,0.010827,-1.495928,1.287865,-0.173952,0.027419,0.172877,1.277989,0.133455,-2.093530,3.125575,0.434649,0.877911,-8.223616,-0.912073,0.131290,-0.017864,0.000000,0.323748,0.213625,0.000000
3.170000,0.443292,0.009152,-1.495647,1.289489,-0.161017,0.028775,0.151989,1.308830,0.137753,-2.083868,3.042291,0.424565,1.053420,-8.431766,-1.104550,0.134485,-0.015713,0.000000,0.315126,0.212767,-0.000000
3.180000,0.456194,0.007607,-1.495352,1.290905,-0.147778,0.030174,0.131206,1.338828,0.141940,-2.072481,2.956970,0.412560,1.222961,-8.630916,-1.296352,0.137592,-0.013570,0.000000,0.306260,0.211725,-0.000000
3.190000,0.469110,0.006197,-1.495043,1.292113,-0.134243,0.031614,0.110545,1.367963,0.145998,-2.059429,2.869704,0.398642,1.386454,-8.820732,-1.487100,0.140609,-0.011438,0.000000,0.297158,0.210505,0.000000
3.200000,0.482036,0.004923,-1.494720,1.293116,-0.120422,0.033093,0.090022,1.396216,0.149907,-2.044773,2.780587,0.382823,1.543818,-9.000879,-1.676416,0.143534,-0.009319,0.000000,0.287830,0.209112,-0.000000
3.210000,0.494971,0.003789,-1.494381,1.293914,-0.106322,0.034611,0.069655,1.423569,0.153648,-2.028557,2.689682,0.365132,1.694563,-9.170084,-1.864228,0.146365,-0.007213,0.000000,0.278283,0.207548,-0.000000
3.220000,0.507914,0.002798,-1.494028,1.294510,-0.091953,0.036166,0.049456,1.450004,0.157203,-2.010884,2.597178,0.345559,1.839072,-9.329067,-2.049815,0.149099,-0.005123,0.000000,0.268534,0.205823,-0.000000
3.230000,0.520861,0.001951,-1.493658,1.294904,-0.077325,0.037755,0.029442,1.475507,0.160553,-1.991797,2.503136,0.324144,1.977314,-9.477611,-2.232761,0.151735,-0.003051,0.000000,0.258592,0.203941,0.000000
3.240000,0.533811,0.001252,-1.493272,1.295099,-0.062446,0.039376,0.009625,1.500062,0.163680,-1.971359,2.407661,0.300914,2.109259,-9.615496,-2.412651,0.154270,-0.000998,0.000000,0.248468,0.201906,0.000000
3.250000,0.546762,0.000703,-1.492870,1.295097,-0.047327,0.041027,-0.009981,1.523656,0.166565,-1.949633,2.310862,0.275903,2.234879,-9.742504,-2.589070,0.156704,0.001035,0.000000,0.238172,0.199724,0.000000
3.260000,0.559712,0.000306,-1.492452,1.294900,-0.031976,0.042706,-0.029364,1.546275,0.169192,-1.926667,2.212805,0.249158,2.353744,-9.857325,-2.761898,0.159033,0.003046,0.000000,0.227713,0.197399,0.000000
3.270000,0.572660,0.000064,-1.492016,1.294511,-0.016405,0.044410,-0.048511,1.567908,0.171543,-1.902561,2.113704,0.220692,2.466274,-9.960964,-2.930387,0.161258,0.005033,0.000000,0.217114,0.194941,-0.000000
3.280000,0.585602,-0.000021,-1.491563,1.293931,-0.000622,0.046136,-0.067411,1.588546,0.173601,-1.877362,2.013623,0.190566,2.572488,-10.053338,-3.094087,0.163375,0.006995,0.000000,0.206382,0.192353,-0.000000
3.290000,0.598538,0.000053,-1.491093,1.293163,0.015363,0.047881,-0.086054,1.608178,0.175349,-1.851132,1.912675,0.158828,2.672405,-10.134361,-3.252546,0.165385,0.008932,0.000000,0.195530,0.189641,0.000000
3.300000,0.611465,0.000287,-1.490606,1.292211,0.031539,0.049642,-0.104431,1.626797,0.176772,-1.823935,1.810974,0.125534,2.766045,-10.203948,-3.405313,0.167285,0.010840,0.000000,0.184572,0.186812,0.000000
3.310000,0.624381,0.000684,-1.490101,1.291076,0.047895,0.051416,-0.122530,1.644395,0.177855,-1.795817,1.708589,0.090748,2.853035,-10.260859,-3.552072,0.169076,0.012720,0.000000,0.173517,0.183870,-0.000000
3.320000,0.637286,0.001245,-1.489577,1.289761,0.064423,0.053198,-0.140344,1.660967,0.178582,-1.766877,1.605743,0.054521,2.933834,-10.306306,-3.692219,0.170755,0.014570,0.000000,0.162388,0.180824,0.000000
3.330000,0.650176,0.001973,-1.489037,1.288270,0.081111,0.054986,-0.157865,1.676508,0.178940,-1.737161,1.502501,0.016927,3.008511,-10.340345,-3.825287,0.172323,0.016390,0.000000,0.151196,0.177680,0.000000
3.340000,0.663050,0.002868,-1.488478,1.286605,0.097950,0.056776,-0.175085,1.691016,0.178916,-1.706727,1.398974,-0.021960,3.077133,-10.363032,-3.950808,0.173779,0.018177,0.000000,0.139954,0.174443,-0.000000
3.350000,0.675907,0.003932,-1.487901,1.284769,0.114928,0.058563,-0.191997,1.704487,0.178497,-1.675638,1.295278,-0.062063,3.139768,-10.374426,-4.068313,0.175122,0.019932,0.000000,0.128675,0.171119,0.000000
3.360000,0.688745,0.005167,-1.487307,1.282766,0.132036,0.060344,-0.208596,1.716921,0.177671,-1.643937,1.191479,-0.103305,3.196109,-10.373472,-4.177164,0.176353,0.021652,0.000000,0.117371,0.167714,0.000000
3.370000,0.701562,0.006574,-1.486694,1.280598,0.149263,0.062115,-0.224874,1.728317,0.176428,-1.611718,1.087795,-0.145584,3.246643,-10.361473,-4.277085,0.177470,0.023339,0.000000,0.106065,0.164238,-0.000000
3.380000,0.714357,0.008153,-1.486064,1.278270,0.166599,0.063871,-0.240828,1.738677,0.174756,-1.579023,0.984286,-0.188815,3.291484,-10.338620,-4.367630,0.178474,0.024989,0.000000,0.094768,0.160694,-0.000000
3.390000,0.727127,0.009906,-1.485417,1.275783,0.184033,0.065609,-0.256453,1.748004,0.172648,-1.545907,0.881059,-0.232904,3.330744,-10.305106,-4.448352,0.179365,0.026604,0.000000,0.083492,0.157090,-0.000000
3.400000,0.739872,0.011834,-1.484752,1.273142,0.201556,0.067323,-0.271745,1.756300,0.170096,-1.512426,0.778219,-0.277748,3.364536,-10.261123,-4.518803,0.180144,0.028182,0.000000,0.072253,0.153432,0.000000
3.410000,0.752589,0.013937,-1.484070,1.270349,0.219156,0.069009,-0.286701,1.763569,0.167091,-1.478621,0.675833,-0.323267,3.392644,-10.205925,-4.577945,0.180810,0.029723,0.000000,0.061059,0.149725,-0.000000
3.420000,0.765278,0.016217,-1.483372,1.267409,0.236824,0.070663,-0.301317,1.769818,0.163629,-1.444576,0.574092,-0.369297,3.415550,-10.140759,-4.625995,0.181365,0.031226,0.000000,0.049935,0.145978,-0.000000
3.430000,0.777937,0.018674,-1.482657,1.264324,0.254549,0.072280,-0.315591,1.775053,0.159704,-1.410327,0.473050,-0.415749,3.433410,-10.065930,-4.662581,0.181809,0.032691,0.000000,0.038889,0.142197,-0.000000
3.440000,0.790564,0.021308,-1.481927,1.261098,0.272321,0.073856,-0.329523,1.779282,0.155313,-1.375924,0.372804,-0.462509,3.446377,-9.981746,-4.687329,0.182143,0.034118,0.000000,0.027936,0.138387,-0.000000
3.450000,0.803158,0.024120,-1.481180,1.257735,0.290131,0.075385,-0.343110,1.782513,0.150453,-1.341415,0.273446,-0.509455,3.454604,-9.888514,-4.699863,0.182368,0.035505,0.000000,0.017087,0.134554,-0.000000
3.460000,0.815718,0.027111,-1.480419,1.254237,0.307968,0.076863,-0.356351,1.784754,0.145123,-1.306837,0.175038,-0.556506,3.457984,-9.785898,-4.698738,0.182486,0.036854,0.000000,0.006352,0.130704,0.000000
3.470000,0.828243,0.030280,-1.479643,1.250609,0.325823,0.078286,-0.369246,1.786017,0.139323,-1.272259,0.077727,-0.603435,3.456964,-9.674928,-4.684784,0.182496,0.038164,0.000000,-0.004248,0.126846,-0.000000
3.480000,0.840730,0.033627,-1.478854,1.246853,0.343685,0.079648,-0.381796,1.786312,0.133055,-1.237712,-0.018434,-0.650159,3.451730,-9.555989,-4.657757,0.182401,0.039434,0.000000,-0.014706,0.122983,-0.000000
3.490000,0.853179,0.037154,-1.478051,1.242974,0.361546,0.080945,-0.394001,1.785652,0.126321,-1.203237,-0.113368,-0.696546,3.442468,-9.429468,-4.617415,0.182202,0.040665,0.000000,-0.025009,0.119122,-0.000000
3.500000,0.865589,0.040858,-1.477235,1.238974,0.379395,0.082173,-0.405861,1.784049,0.119126,-1.168875,-0.207000,-0.742462,3.429364,-9.295751,-4.563516,0.181901,0.041856,0.000000,-0.035147,0.115268,-0.000000
3.510000,0.877959,0.044741,-1.476407,1.234858,0.397224,0.083326,-0.417379,1.781517,0.111473,-1.134656,-0.299270,-0.787831,3.412440,-9.154972,-4.494280,0.181500,0.043009,0.000000,-0.045112,0.111426,0.000000
3.520000,0.890286,0.048803,-1.475569,1.230628,0.415023,0.084401,-0.428555,1.778069,0.103371,-1.100631,-0.390089,-0.832370,3.392065,-9.007799,-4.411189,0.181000,0.044122,0.000000,-0.054887,0.107603,-0.000000
3.530000,0.902571,0.053042,-1.474720,1.226288,0.432782,0.085392,-0.439392,1.773720,0.094829,-1.066825,-0.479406,-0.876008,3.368445,-8.854651,-4.314189,0.180403,0.045197,0.000000,-0.064467,0.103804,-0.000000
3.540000,0.914811,0.057458,-1.473861,1.221841,0.450494,0.086296,-0.449892,1.768486,0.085855,-1.033272,-0.567164,-0.918607,3.341787,-8.695942,-4.203223,0.179711,0.046233,0.000000,-0.073842,0.100033,0.000000
3.550000,0.927007,0.062051,-1.472994,1.217291,0.468149,0.087108,-0.460058,1.762382,0.076461,-0.999999,-0.653308,-0.960026,3.312296,-8.532091,-4.078238,0.178927,0.047230,0.000000,-0.083004,0.096295,0.000000
3.560000,0.939157,0.066821,-1.472119,1.212641,0.485739,0.087824,-0.469893,1.755425,0.066658,-0.967033,-0.737782,-1.000200,3.280139,-8.363696,-3.937271,0.178052,0.048190,0.000000,-0.091946,0.092594,0.000000
3.570000,0.951260,0.071766,-1.471238,1.207894,0.503255,0.088440,-0.479400,1.747632,0.056461,-0.934403,-0.820559,-1.038810,3.245566,-8.190969,-3.782409,0.177089,0.049112,0.000000,-0.100659,0.088935,-0.000000
3.580000,0.963315,0.076886,-1.470351,1.203054,0.520689,0.088952,-0.488583,1.739020,0.045887,-0.902129,-0.901589,-1.075803,3.208788,-8.014305,-3.613830,0.176039,0.049997,0.000000,-0.109138,0.085323,-0.000000
3.590000,0.975320,0.082179,-1.469459,1.198124,0.538032,0.089356,-0.497444,1.729606,0.034951,-0.870233,-0.980834,-1.111042,3.170016,-7.834100,-3.431713,0.174907,0.050845,0.000000,-0.117377,0.081760,0.000000
3.600000,0.987277,0.087646,-1.468564,1.193106,0.555278,0.089650,-0.505989,1.719409,0.023672,-0.838735,-1.058260,-1.144392,3.129461,-7.650747,-3.236238,0.173693,0.051658,0.000000,-0.125371,0.078251,-0.000000
3.610000,0.999182,0.093285,-1.467667,1.188005,0.572418,0.089829,-0.514220,1.708447,0.012069,-0.807654,-1.133816,-1.175806,3.087441,-7.465219,-3.025459,0.172400,0.052434,0.000000,-0.133115,0.074798,-0.000000
3.620000,1.011037,0.099094,-1.466768,1.182823,0.589445,0.089890,-0.522143,1.696739,0.000164,-0.776995,-1.207531,-1.204954,3.044045,-7.277262,-2.801939,0.171031,0.053176,0.000000,-0.140607,0.071405,-0.000000
3.630000,1.022839,0.105073,-1.465869,1.177563,0.606350,0.089831,-0.529762,1.684303,-0.012022,-0.746777,-1.279355,-1.231804,2.999473,-7.087200,-2.566117,0.169589,0.053884,0.000000,-0.147842,0.068075,-0.000000
3.640000,1.034588,0.111221,-1.464972,1.172229,0.623128,0.089649,-0.537080,1.671158,-0.024464,-0.717009,-1.349269,-1.256237,2.953921,-6.895357,-2.318431,0.168075,0.054558,0.000000,-0.154820,0.064809,0.000000
3.650000,1.046283,0.117535,-1.464077,1.166823,0.639771,0.089341,-0.544103,1.657324,-0.037138,-0.687701,-1.417257,-1.278135,2.907586,-6.702058,-2.059320,0.166493,0.055199,0.000000,-0.161537,0.061611,0.000000
3.660000,1.057924,0.124016,-1.463185,1.161348,0.656273,0.088905,-0.550836,1.642820,-0.050019,-0.658870,-1.483273,-1.297471,2.860945,-6.508468,-1.787090,0.164845,0.055808,0.000000,-0.167991,0.058482,0.000000
3.670000,1.069510,0.130660,-1.462299,1.155807,0.672626,0.088340,-0.557282,1.627665,-0.063079,-0.630496,-1.547386,-1.313937,2.813882,-6.313967,-1.504573,0.163134,0.056385,0.000000,-0.174186,0.055424,-0.000000
3.680000,1.081040,0.137468,-1.461419,1.150203,0.688824,0.087643,-0.563447,1.611879,-0.076288,-0.602594,-1.609550,-1.327530,2.766563,-6.118774,-1.212470,0.161362,0.056931,0.000000,-0.180121,0.052437,-0.000000
3.690000,1.092513,0.144436,-1.460546,1.144539,0.704861,0.086814,-0.569336,1.595481,-0.089619,-0.575165,-1.669760,-1.338157,2.719150,-5.923110,-0.911480,0.159533,0.057448,0.000000,-0.185794,0.049523,0.000000
3.700000,1.103930,0.151564,-1.459683,1.138817,0.720731,0.085851,-0.574952,1.578490,-0.103041,-0.548210,-1.728011,-1.345733,2.671807,-5.727195,-0.602303,0.157647,0.057935,0.000000,-0.191209,0.046683,0.000000
3.710000,1.115290,0.158850,-1.458830,1.133041,0.736429,0.084753,-0.580302,1.560927,-0.116524,-0.521747,-1.784268,-1.350254,2.625171,-5.532146,-0.283730,0.155709,0.058393,0.000000,-0.196363,0.043919,-0.000000
3.720000,1.126591,0.166292,-1.457988,1.127212,0.751948,0.083520,-0.585389,1.542811,-0.130036,-0.495727,-1.838614,-1.351471,2.578875,-5.337178,0.041397,0.153721,0.058824,0.000000,-0.201266,0.041228,0.000000
3.730000,1.137834,0.173889,-1.457160,1.121334,0.767283,0.082152,-0.590218,1.524162,-0.143543,-0.470168,-1.891012,-1.349407,2.533024,-5.142403,0.372144,0.151685,0.059228,0.000000,-0.205917,0.038611,-0.000000
3.740000,1.149017,0.181637,-1.456346,1.115408,0.782430,0.080649,-0.594794,1.504998,-0.157013,-0.445065,-1.941464,-1.344012,2.487724,-4.947931,0.707578,0.149604,0.059606,0.000000,-0.210318,0.036069,0.000000
3.750000,1.160142,0.189536,-1.455547,1.109439,0.797382,0.079012,-0.599121,1.485339,-0.170412,-0.420411,-1.989972,-1.335243,2.443081,-4.753875,1.046765,0.147479,0.059958,0.000000,-0.214474,0.033601,-0.000000
3.760000,1.171206,0.197584,-1.454766,1.103427,0.812135,0.077242,-0.603203,1.465205,-0.183707,-0.396214,-2.036524,-1.323124,2.399537,-4.560825,1.390205,0.145315,0.060285,0.000000,-0.218387,0.031208,-0.000000
3.770000,1.182210,0.205778,-1.454003,1.097375,0.826684,0.075339,-0.607046,1.444615,-0.196863,-0.372433,-2.081169,-1.307497,2.356820,-4.368353,1.735356,0.143112,0.060589,0.000000,-0.222064,0.028886,-0.000000
3.780000,1.193153,0.214117,-1.453260,1.091287,0.841026,0.073305,-0.610653,1.423588,-0.209845,-0.349074,-2.123893,-1.288415,2.314994,-4.176512,2.081109,0.140874,0.060869,0.000000,-0.225509,0.026635,-0.000000
3.790000,1.204036,0.222598,-1.452537,1.085163,0.855155,0.071142,-0.614029,1.402143,-0.222620,-0.326130,-2.164702,-1.265877,2.274122,-3.985355,2.426357,0.138603,0.061127,0.000000,-0.228725,0.024455,-0.000000
3.800000,1.214857,0.231220,-1.451837,1.079007,0.869067,0.068853,-0.617177,1.380300,-0.235151,-0.303589,-2.203603,-1.239893,2.234270,-3.794935,2.769990,0.136301,0.061363,0.000000,-0.231717,0.022344,0.000000
3.810000,1.225616,0.239979,-1.451161,1.072820,0.882759,0.066440,-0.620103,1.358078,-0.247406,-0.281533,-2.240549,-1.210516,2.197824,-3.606668,3.111650,0.133969,0.061578,0.000000,-0.234486,0.020310,0.000000
3.820000,1.236313,0.248874,-1.450509,1.066606,0.896228,0.063906,-0.622809,1.335495,-0.259350,-0.259733,-2.275677,-1.177707,2.162242,-3.419075,3.449387,0.131612,0.061773,0.000000,-0.237049,0.018330,-0.000000
3.830000,1.246948,0.257903,-1.449883,1.060365,0.909468,0.061254,-0.625299,1.312571,-0.270949,-0.238286,-2.308932,-1.141545,2.127302,-3.232042,3.781998,0.129229,0.061948,0.000000,-0.239406,0.016412,-0.000000
3.840000,1.257520,0.267063,-1.449284,1.054100,0.922478,0.058488,-0.627576,1.289323,-0.282170,-0.217185,-2.340320,-1.102088,2.092786,-3.045454,4.108284,0.126824,0.062104,0.000000,-0.241561,0.014555,-0.000000
3.850000,1.268030,0.276351,-1.448714,1.047814,0.935254,0.055612,-0.629644,1.265771,-0.292980,-0.196429,-2.369843,-1.059405,2.058472,-2.859195,4.427043,0.124399,0.062242,0.000000,-0.243519,0.012758,0.000000
3.860000,1.278476,0.285767,-1.448172,1.041508,0.947792,0.052630,-0.631507,1.241932,-0.303348,-0.176109,-2.397576,-1.013568,2.026498,-2.671343,4.736859,0.121954,0.062362,0.000000,-0.245293,0.011030,0.000000
3.870000,1.288860,0.295307,-1.447661,1.035185,0.960091,0.049547,-0.633167,1.217825,-0.313242,-0.156006,-2.423351,-0.964691,1.993997,-2.483813,5.036774,0.119493,0.062465,0.000000,-0.246871,0.009346,-0.000000
3.880000,1.299180,0.304968,-1.447182,1.028846,0.972148,0.046367,-0.634628,1.193471,-0.322632,-0.136233,-2.447253,-0.912869,1.960462,-2.296712,5.325612,0.117017,0.062550,0.000000,-0.248267,0.007719,0.000000
3.890000,1.309437,0.314749,-1.446734,1.022493,0.983960,0.043096,-0.635893,1.168887,-0.331490,-0.116802,-2.469287,-0.858219,1.925382,-2.110146,5.602199,0.114529,0.062620,0.000000,-0.249484,0.006146,-0.000000
3.900000,1.319630,0.324646,-1.446320,1.016128,0.995525,0.039739,-0.636965,1.144091,-0.339787,-0.097732,-2.489459,-0.800870,1.888250,-1.924224,5.865362,0.112028,0.062674,0.000000,-0.250529,0.004630,0.000000
3.910000,1.329759,0.334658,-1.445940,1.009754,1.006841,0.036302,-0.637845,1.119102,-0.347498,-0.078683,-2.507920,-0.740887,1.839381,-1.735374,6.112067,0.109518,0.062713,0.000000,-0.251420,0.003135,-0.000000
3.920000,1.339825,0.344782,-1.445594,1.003372,1.017907,0.032791,-0.638541,1.093939,-0.354597,-0.060541,-2.524334,-0.678597,1.788565,-1.547831,6.343226,0.107001,0.062738,0.000000,-0.252131,0.001745,-0.000000
3.930000,1.349827,0.355016,-1.445284,0.996984,1.028720,0.029212,-0.639057,1.068622,-0.361062,-0.042916,-2.538883,-0.614078,1.736417,-1.362152,6.557891,0.104476,0.062748,0.000000,-0.252682,0.000422,-0.000000
3.940000,1.359765,0.365356,-1.445010,0.990591,1.039279,0.025572,-0.639401,1.043168,-0.366872,-0.025815,-2.551586,-0.547498,1.683550,-1.178893,6.755116,0.101947,0.062746,0.000000,-0.253080,-0.000836,0.000000
3.950000,1.369638,0.375800,-1.444773,0.984196,1.049582,0.021877,-0.639576,1.017596,-0.372006,-0.009245,-2.562470,-0.479037,1.630580,-0.998611,6.933953,0.099415,0.062732,0.000000,-0.253331,-0.002029,0.000000
3.960000,1.379448,0.386347,-1.444573,0.977800,1.059630,0.018134,-0.639588,0.991926,-0.376445,0.006693,-2.571381,-0.408751,1.580769,-0.826625,7.090131,0.096881,0.062706,0.000000,-0.253422,-0.003149,0.000000
3.970000,1.389194,0.396992,-1.444410,0.971405,1.069421,0.014351,-0.639443,0.966174,-0.380176,0.022255,-2.578802,-0.337152,1.531760,-0.658147,7.226434,0.094347,0.062669,0.000000,-0.253407,-0.004225,-0.000000
3.980000,1.398877,0.407734,-1.444286,0.965012,1.078953,0.010533,-0.639145,0.940356,-0.383184,0.037332,-2.584556,-0.264291,1.483842,-0.493151,7.342324,0.091814,0.062621,0.000000,-0.253270,-0.005245,0.000000
3.990000,1.408495,0.418570,-1.444200,0.958623,1.088228,0.006689,-0.638698,0.914488,-0.385458,0.051936,-2.588677,-0.190375,1.437307,-0.331611,7.437260,0.089282,0.062564,0.000000,-0.253017,-0.006214,-0.000000
4.000000,1.418049,0.429498,-1.444152,0.952239,1.097243,0.002827,-0.638108,0.888588,-0.386989,0.066084,-2.591199,-0.115617,1.392445,-0.173501,7.510703,0.086754,0.062497,0.000000,-0.252654,-0.007135,-0.000000
4.010000,1.427540,0.440514,-1.444143,0.945861,1.105999,-0.001048,-0.637383,0.862672,-0.387767,0.079321,-2.591948,-0.040080,1.361448,-0.024098,7.558202,0.084230,0.062421,0.000000,-0.252165,-0.007964,0.000000
4.020000,1.436966,0.451617,-1.444173,0.939491,1.114496,-0.004926,-0.636522,0.836754,-0.387789,0.092784,-2.591454,0.035648,1.331247,0.122576,7.583606,0.081711,0.062337,0.000000,-0.251607,-0.008816,-0.000000
4.030000,1.446329,0.462803,-1.444242,0.933131,1.122734,-0.008801,-0.635529,0.810848,-0.387053,0.105944,-2.589503,0.111519,1.300676,0.267198,7.586857,0.079198,0.062244,0.000000,-0.250958,-0.009640,0.000000
4.040000,1.455629,0.474071,-1.444349,0.926781,1.130713,-0.012665,-0.634405,0.784968,-0.385559,0.118792,-2.586114,0.187311,1.268569,0.410442,7.567892,0.076692,0.062143,0.000000,-0.250222,-0.010437,0.000000
4.050000,1.464865,0.485417,-1.444495,0.920443,1.138434,-0.016510,-0.633154,0.759130,-0.383308,0.131307,-2.581297,0.262802,1.233758,0.552986,7.526652,0.074194,0.062035,0.000000,-0.249401,-0.011206,0.000000
4.060000,1.474038,0.496839,-1.444679,0.914119,1.145896,-0.020328,-0.631774,0.733344,-0.380303,0.143946,-2.575380,0.337915,1.182667,0.703724,7.459408,0.071704,0.061918,0.000000,-0.248527,-0.011993,0.000000
4.070000,1.483147,0.508334,-1.444901,0.907808,1.153101,-0.024113,-0.630277,0.707627,-0.376553,0.155502,-2.567590,0.412081,1.128059,0.854105,7.370217,0.069223,0.061795,0.000000,-0.247526,-0.012683,0.000000
4.080000,1.492194,0.519900,-1.445161,0.901513,1.160049,-0.027857,-0.628666,0.681997,-0.372065,0.166497,-2.558300,0.485247,1.070286,1.003799,7.259466,0.066754,0.061664,0.000000,-0.246435,-0.013329,-0.000000
4.090000,1.501178,0.531534,-1.445458,0.895235,1.166741,-0.031552,-0.626949,0.656466,-0.366852,0.176899,-2.547518,0.557200,1.009701,1.152474,7.127543,0.064295,0.061528,0.000000,-0.245254,-0.013928,0.000000
4.100000,1.510099,0.543234,-1.445792,0.888975,1.173179,-0.035192,-0.625130,0.631051,-0.360926,0.186682,-2.535255,0.627729,0.946656,1.299800,6.974837,0.061849,0.061385,0.000000,-0.243982,-0.014479,0.000000
4.110000,1.518957,0.554997,-1.446162,0.882733,1.179363,-0.038768,-0.623216,0.605765,-0.354301,0.195950,-2.521636,0.696745,0.878332,1.448188,6.798797,0.059416,0.061238,0.000000,-0.242631,-0.014992,-0.000000
4.120000,1.527754,0.566820,-1.446567,0.876511,1.185295,-0.042276,-0.621214,0.580624,-0.346997,0.204386,-2.506422,0.763770,0.808642,1.594228,6.603109,0.056996,0.061085,0.000000,-0.241178,-0.015441,-0.000000
4.130000,1.536488,0.578702,-1.447007,0.870309,1.190976,-0.045706,-0.619130,0.555641,-0.339033,0.212121,-2.489761,0.828744,0.738328,1.737255,6.388523,0.054592,0.060928,0.000000,-0.239634,-0.015837,-0.000000
4.140000,1.545160,0.590639,-1.447481,0.864128,1.196408,-0.049054,-0.616973,0.530833,-0.330430,0.219153,-2.471689,0.891480,0.668129,1.876601,6.155788,0.052204,0.060768,0.000000,-0.238001,-0.016181,0.000000
4.150000,1.553770,0.602629,-1.447988,0.857970,1.201593,-0.052313,-0.614750,0.506212,-0.321211,0.225487,-2.452244,0.951802,0.598788,2.011601,5.905650,0.049833,0.060604,0.000000,-0.236281,-0.016475,0.000000
4.160000,1.562319,0.614670,-1.448527,0.851834,1.206533,-0.055476,-0.612469,0.481794,-0.311401,0.230831,-2.431305,1.009628,0.538705,2.137340,5.636583,0.047479,0.060439,0.000000,-0.234459,-0.016690,-0.000000
4.170000,1.570807,0.626759,-1.449097,0.845721,1.211230,-0.058539,-0.610135,0.457590,-0.301028,0.235923,-2.409325,1.064583,0.480024,2.257919,5.351890,0.045144,0.060270,0.000000,-0.232577,-0.016901,-0.000000
4.180000,1.579234,0.638894,-1.449698,0.839631,1.215685,-0.061495,-0.607753,0.433612,-0.290119,0.240435,-2.386165,1.116617,0.422546,2.373190,5.052597,0.042828,0.060100,0.000000,-0.230619,-0.017075,0.000000
4.190000,1.587600,0.651072,-1.450327,0.833566,1.219903,-0.064340,-0.605328,0.409871,-0.278706,0.244378,-2.361879,1.165590,0.366077,2.483008,4.739732,0.040532,0.059929,0.000000,-0.228588,-0.017215,-0.000000
4.200000,1.595905,0.663291,-1.450984,0.827525,1.223884,-0.067068,-0.602867,0.386378,-0.266818,0.247759,-2.336523,1.211370,0.310417,2.587226,4.414322,0.038256,0.059756,0.000000,-0.226485,-0.017320,0.000000
4.210000,1.604150,0.675549,-1.451668,0.821508,1.227631,-0.069675,-0.600374,0.363143,-0.254489,0.250664,-2.310202,1.253896,0.253459,2.686927,4.075916,0.036002,0.059582,0.000000,-0.224317,-0.017401,-0.000000
4.220000,1.612335,0.687843,-1.452377,0.815517,1.231148,-0.072156,-0.597856,0.340177,-0.241752,0.252916,-2.282860,1.292920,0.197151,2.780584,3.727199,0.033770,0.059408,0.000000,-0.222076,-0.017439,0.000000
4.230000,1.620461,0.700171,-1.453110,0.809551,1.234436,-0.074508,-0.595318,0.317489,-0.228642,0.254609,-2.254612,1.328410,0.141532,2.867898,3.369381,0.031561,0.059233,0.000000,-0.219770,-0.017445,-0.000000
4.240000,1.628527,0.712531,-1.453867,0.803611,1.237498,-0.076728,-0.592765,0.295088,-0.215196,0.255749,-2.225524,1.360281,0.086638,2.948573,3.003668,0.029375,0.059059,0.000000,-0.217401,-0.017419,-0.000000
4.250000,1.636533,0.724920,-1.454645,0.797696,1.240338,-0.078811,-0.590204,0.272981,-0.201449,0.256344,-2.195664,1.388461,0.032508,3.022310,2.631270,0.027213,0.058885,0.000000,-0.214973,-0.017362,0.000000
4.260000,1.644481,0.737337,-1.455443,0.791807,1.242959,-0.080756,-0.587640,0.251177,-0.187439,0.256417,-2.165078,1.412910,-0.021195,3.088221,2.252849,0.025076,0.058712,0.000000,-0.212486,-0.017276,0.000000
4.270000,1.652369,0.749779,-1.456259,0.785943,1.245363,-0.082559,-0.585078,0.229681,-0.173203,0.255940,-2.133898,1.433528,-0.074015,3.146671,1.870225,0.022963,0.058539,0.000000,-0.209951,-0.017158,-0.000000
4.280000,1.660199,0.762243,-1.457093,0.780105,1.247554,-0.084219,-0.582523,0.208501,-0.158781,0.254940,-2.102171,1.450305,-0.125868,3.197438,1.484672,0.020877,0.058368,0.000000,-0.207367,-0.017011,-0.000000
4.290000,1.667971,0.774729,-1.457943,0.774293,1.249534,-0.085734,-0.579981,0.187640,-0.144210,0.253426,-2.069975,1.463216,-0.176672,3.240295,1.097466,0.018816,0.058199,0.000000,-0.204740,-0.016834,0.000000
4.300000,1.675685,0.787233,-1.458807,0.768506,1.251307,-0.087103,-0.577456,0.167103,-0.129529,0.251410,-2.037392,1.472253,-0.226342,3.275018,0.709881,0.016782,0.058032,0.000000,-0.202074,-0.016630,-0.000000
4.310000,1.683342,0.799754,-1.459685,0.762744,1.252877,-0.088325,-0.574954,0.146893,-0.114778,0.248906,-2.004444,1.477400,-0.274860,3.299904,0.323617,0.014775,0.057867,0.000000,-0.199368,-0.016399,0.000000
4.320000,1.690940,0.812290,-1.460573,0.757006,1.254246,-0.089399,-0.572480,0.127014,-0.099994,0.245920,-1.971356,1.478713,-0.322071,3.316388,-0.060529,0.012795,0.057704,0.000000,-0.196642,-0.016140,0.000000
4.330000,1.698482,0.824839,-1.461472,0.751294,1.255418,-0.090325,-0.570037,0.107467,-0.085217,0.242469,-1.938145,1.476200,-0.367885,3.324424,-0.441333,0.010842,0.057544,0.000000,-0.193892,-0.015856,-0.000000
4.340000,1.705966,0.837398,-1.462379,0.745606,1.256397,-0.091103,-0.567632,0.088252,-0.070483,0.238567,-1.904896,1.469902,-0.412210,3.323970,-0.817573,0.008917,0.057387,0.000000,-0.191127,-0.015547,-0.000000
4.350000,1.713394,0.849966,-1.463294,0.739941,1.257185,-0.091735,-0.565267,0.069369,-0.055831,0.234230,-1.871694,1.459868,-0.454957,3.314981,-1.188027,0.007020,0.057233,0.000000,-0.188350,-0.015213,0.000000
4.360000,1.720765,0.862541,-1.464214,0.734300,1.257785,-0.092220,-0.562949,0.050818,-0.041298,0.229474,-1.838554,1.446111,-0.496030,3.295646,-1.550131,0.005150,0.057083,0.000000,-0.185561,-0.014857,-0.000000
4.370000,1.728080,0.875121,-1.465138,0.728682,1.258202,-0.092561,-0.560679,0.032597,-0.026921,0.224315,-1.805730,1.428833,-0.535343,3.267905,-1.904167,0.003308,0.056936,0.000000,-0.182784,-0.014477,-0.000000
4.380000,1.735339,0.887704,-1.466064,0.723086,1.258438,-0.092759,-0.558464,0.014702,-0.012733,0.218773,-1.773224,1.408058,-0.572806,3.231931,-2.249076,0.001494,0.056793,0.000000,-0.180016,-0.014077,0.000000
4.390000,1.742542,0.900289,-1.466992,0.717512,1.258497,-0.092816,-0.556305,-0.002869,0.001229,0.212866,-1.741118,1.383885,-0.608330,3.187897,-2.583800,-0.000292,0.056654,0.000000,-0.177263,-0.013656,0.000000
4.400000,1.749689,0.912874,-1.467920,0.711960,1.258382,-0.092735,-0.554207,-0.020122,0.014933,0.206613,-1.709492,1.356420,-0.641824,3.135975,-2.907281,-0.002051,0.056520,0.000000,-0.174532,-0.013216,-0.000000
4.410000,1.756781,0.925456,-1.468847,0.706428,1.258096,-0.092519,-0.552174,-0.037060,0.028346,0.200030,-1.678357,1.325696,-0.673054,3.074635,-3.216318,-0.003783,0.056390,0.000000,-0.171822,-0.012758,-0.000000
4.420000,1.763818,0.938035,-1.469770,0.700916,1.257642,-0.092170,-0.550208,-0.053691,0.041437,0.193153,-1.647948,1.292042,-0.702092,3.005962,-3.512256,-0.005488,0.056265,0.000000,-0.169157,-0.012284,-0.000000
4.430000,1.770800,0.950609,-1.470690,0.695424,1.257023,-0.091691,-0.548312,-0.070021,0.054177,0.185996,-1.618261,1.255497,-0.728866,2.930336,-3.794300,-0.007166,0.056144,0.000000,-0.166533,-0.011795,0.000000
4.440000,1.777726,0.963175,-1.471604,0.689950,1.256242,-0.091087,-0.546489,-0.086059,0.066538,0.178583,-1.589363,1.216205,-0.753302,2.848138,-4.061652,-0.008818,0.056029,0.000000,-0.163959,-0.011292,-0.000000
4.450000,1.784599,0.975733,-1.472511,0.684494,1.255303,-0.090362,-0.544741,-0.101811,0.078493,0.170938,-1.561319,1.174316,-0.775329,2.759749,-4.313516,-0.010445,0.055919,0.000000,-0.161438,-0.010776,-0.000000
4.460000,1.791416,0.988281,-1.473410,0.679055,1.254207,-0.089519,-0.543071,-0.117288,0.090015,0.163075,-1.534135,1.129882,-0.794611,2.664216,-4.546393,-0.012047,0.055814,0.000000,-0.158972,-0.010250,0.000000
4.470000,1.798180,1.000817,-1.474301,0.673632,1.252958,-0.088563,-0.541480,-0.132497,0.101083,0.155043,-1.507992,1.083323,-0.811371,2.563418,-4.762521,-0.013625,0.055714,0.000000,-0.156578,-0.009715,-0.000000
4.480000,1.804889,1.013339,-1.475181,0.668225,1.251558,-0.087499,-0.539970,-0.147451,0.111675,0.146856,-1.482882,1.034689,-0.825569,2.457899,-4.961434,-0.015179,0.055619,0.000000,-0.154256,-0.009173,-0.000000
4.490000,1.811544,1.025847,-1.476051,0.662832,1.250010,-0.086331,-0.538543,-0.162159,0.121770,0.138540,-1.458848,0.984153,-0.837164,2.348204,-5.142667,-0.016710,0.055530,0.000000,-0.152011,-0.008625,-0.000000
4.500000,1.818146,1.038339,-1.476908,0.657454,1.248316,-0.085065,-0.537200,-0.176632,0.131352,0.130121,-1.435930,0.931896,-0.846117,2.234878,-5.305754,-0.018220,0.055447,0.000000,-0.149845,-0.008074,-0.000000
4.510000,1.824693,1.050813,-1.477752,0.652088,1.246478,-0.083706,-0.535941,-0.190881,0.140402,0.121613,-1.414134,0.877983,-0.852052,2.117773,-5.447283,-0.019707,0.055369,0.000000,-0.147762,-0.007520,0.000000
4.520000,1.831188,1.063268,-1.478581,0.646735,1.244499,-0.082259,-0.534768,-0.204918,0.148907,0.113074,-1.393552,0.822881,-0.855305,1.998211,-5.570097,-0.021175,0.055296,0.000000,-0.145770,-0.006967,-0.000000
4.530000,1.837628,1.075703,-1.479396,0.641392,1.242380,-0.080730,-0.533680,-0.218756,0.156856,0.104516,-1.374175,0.766644,-0.855878,1.876821,-5.674091,-0.022623,0.055229,0.000000,-0.143870,-0.006415,-0.000000
4.540000,1.844015,1.088115,-1.480196,0.636061,1.240124,-0.079124,-0.532678,-0.232406,0.164237,0.095966,-1.356019,0.709462,-0.853771,1.754232,-5.759161,-0.024053,0.055168,0.000000,-0.142063,-0.005868,-0.000000
4.550000,1.850349,1.100505,-1.480979,0.630739,1.237733,-0.077447,-0.531760,-0.245880,0.171042,0.087450,-1.339093,0.651524,-0.848985,1.631074,-5.825202,-0.025465,0.055112,0.000000,-0.140352,-0.005326,-0.000000
4.560000,1.856630,1.112869,-1.481744,0.625425,1.235207,-0.075705,-0.530928,-0.259192,0.177264,0.078980,-1.323399,0.592908,-0.841156,1.508019,-5.869238,-0.026860,0.055061,0.000000,-0.138738,-0.004790,-0.000000
4.570000,1.862858,1.125208,-1.482493,0.620120,1.232549,-0.073903,-0.530181,-0.272352,0.182899,0.070619,-1.308932,0.534074,-0.830695,1.385648,-5.894388,-0.028240,0.055016,0.000000,-0.137222,-0.004266,-0.000000
4.580000,1.869033,1.137520,-1.483222,0.614821,1.229760,-0.072049,-0.529516,-0.285374,0.187945,0.062375,-1.295682,0.475083,-0.817648,1.264586,-5.900899,-0.029605,0.054976,0.000000,-0.135803,-0.003752,-0.000000
4.590000,1.875154,1.149803,-1.483933,0.609529,1.226842,-0.070146,-0.528933,-0.298270,0.192401,0.054274,-1.283634,0.416118,-0.802060,1.145457,-5.889018,-0.030956,0.054941,0.000000,-0.134482,-0.003252,-0.000000
4.600000,1.881223,1.162056,-1.484625,0.604242,1.223795,-0.068203,-0.528430,-0.311051,0.196268,0.046342,-1.272764,0.357363,-0.783976,1.028884,-5.858992,-0.032295,0.054911,0.000000,-0.133257,-0.002767,0.000000
4.610000,1.887239,1.174279,-1.485297,0.598960,1.220621,-0.066223,-0.528005,-0.323729,0.199549,0.038590,-1.263075,0.298899,-0.763110,0.916234,-5.808585,-0.033622,0.054886,0.000000,-0.132130,-0.002298,0.000000
4.620000,1.893202,1.186468,-1.485950,0.593682,1.217321,-0.064213,-0.527657,-0.336316,0.202248,0.031073,-1.254460,0.241138,-0.739880,0.807299,-5.740832,-0.034938,0.054865,0.000000,-0.131092,-0.001849,0.000000
4.630000,1.899113,1.198625,-1.486582,0.588407,1.213895,-0.062180,-0.527383,-0.348822,0.204374,0.023800,-1.246915,0.184139,-0.714373,0.702611,-5.656283,-0.036244,0.054848,0.000000,-0.130142,-0.001420,-0.000000
4.640000,1.904971,1.210746,-1.487193,0.583134,1.210345,-0.060128,-0.527180,-0.361258,0.205934,0.016793,-1.240392,0.128066,-0.686676,0.602705,-5.555489,-0.037541,0.054836,0.000000,-0.129279,-0.001013,0.000000
4.650000,1.910776,1.222831,-1.487784,0.577863,1.206670,-0.058063,-0.527046,-0.373633,0.206939,0.010073,-1.234843,0.073081,-0.656875,0.508113,-5.439002,-0.038830,0.054828,0.000000,-0.128498,-0.000629,0.000000
4.660000,1.916528,1.234879,-1.488354,0.572593,1.202872,-0.055991,-0.526978,-0.385958,0.207399,0.003652,-1.230261,0.019264,-0.624805,0.420651,-5.305522,-0.040111,0.054824,0.000000,-0.127800,-0.000269,0.000000
4.670000,1.922227,1.246888,-1.488904,0.567323,1.198951,-0.053917,-0.526972,-0.398241,0.207329,-0.002428,-1.226466,-0.033064,-0.590836,0.339414,-5.157677,-0.041386,0.054823,0.000000,-0.127169,0.000064,0.000000
4.680000,1.927874,1.258857,-1.489433,0.562053,1.194908,-0.051846,-0.527025,-0.410490,0.206743,-0.008159,-1.223451,-0.083845,-0.555083,0.264777,-4.996245,-0.042655,0.054825,0.000000,-0.126604,0.000369,0.000000
4.690000,1.933469,1.270786,-1.489941,0.556783,1.190742,-0.049784,-0.527134,-0.422713,0.205658,-0.013524,-1.221148,-0.132946,-0.517664,0.197116,-4.822002,-0.043918,0.054830,0.000000,-0.126101,0.000646,0.000000
4.700000,1.939010,1.282672,-1.490428,0.551511,1.186454,-0.047734,-0.527294,-0.434915,0.204090,-0.018507,-1.219484,-0.180245,-0.478696,0.136807,-4.635727,-0.045177,0.054838,0.000000,-0.125653,0.000893,0.000000
4.710000,1.944499,1.294515,-1.490896,0.546237,1.182043,-0.045703,-0.527503,-0.447105,0.202059,-0.023098,-1.218448,-0.225666,-0.438160,0.085814,-4.437125,-0.046432,0.054848,0.000000,-0.125261,0.001110,0.000000
4.720000,1.949935,1.306312,-1.491343,0.540960,1.177512,-0.043695,-0.527755,-0.459286,0.199584,-0.027272,-1.217812,-0.269000,-0.396327,0.042731,-4.228177,-0.047682,0.054860,0.000000,-0.124904,0.001295,-0.000000
4.730000,1.955318,1.318064,-1.491770,0.535681,1.172858,-0.041713,-0.528047,-0.471463,0.196686,-0.031021,-1.217567,-0.310198,-0.353329,0.007741,-4.009791,-0.048930,0.054874,0.000000,-0.124581,0.001448,0.000000
4.740000,1.960648,1.329769,-1.492177,0.530399,1.168082,-0.039762,-0.528374,-0.483638,0.193387,-0.034335,-1.217630,-0.349168,-0.309300,-0.018974,-3.782878,-0.050174,0.054889,0.000000,-0.124286,0.001569,0.000000
4.750000,1.965926,1.341426,-1.492565,0.525114,1.163185,-0.037847,-0.528732,-0.495816,0.189710,-0.037204,-1.217918,-0.385830,-0.264374,-0.037232,-3.548345,-0.051416,0.054905,0.000000,-0.124011,0.001656,0.000000
4.760000,1.971151,1.353032,-1.492934,0.519825,1.158166,-0.035969,-0.529117,-0.507998,0.185678,-0.039620,-1.218410,-0.420123,-0.218675,-0.045225,-3.306841,-0.052654,0.054922,0.000000,-0.123757,0.001709,0.000000
4.770000,1.976322,1.364588,-1.493284,0.514531,1.153025,-0.034134,-0.529523,-0.520184,0.181316,-0.041576,-1.218866,-0.451959,-0.172347,-0.044596,-3.059567,-0.053891,0.054939,0.000000,-0.123500,0.001729,-0.000000
4.780000,1.981441,1.376093,-1.493617,0.509234,1.147762,-0.032344,-0.529947,-0.532375,0.176647,-0.043065,-1.219273,-0.481298,-0.125526,-0.035362,-2.807465,-0.055124,0.054956,0.000000,-0.123239,0.001714,-0.000000
4.790000,1.986507,1.387543,-1.493931,0.503932,1.142378,-0.030602,-0.530383,-0.544569,0.171698,-0.044085,-1.219545,-0.508096,-0.078346,-0.017540,-2.551476,-0.056355,0.054973,0.000000,-0.122969,0.001665,-0.000000
4.800000,1.991520,1.398940,-1.494229,0.498626,1.136871,-0.028911,-0.530827,-0.556765,0.166494,-0.044632,-1.219596,-0.532318,-0.030943,0.008854,-2.292540,-0.057584,0.054989,0.000000,-0.122682,0.001582,0.000000
4.810000,1.996480,1.410280,-1.494510,0.493316,1.131242,-0.027273,-0.531274,-0.568961,0.161061,-0.044700,-1.219396,-0.553921,0.016445,0.045231,-2.032081,-0.058809,0.055005,0.000000,-0.122376,0.001465,0.000000
4.820000,2.001386,1.421564,-1.494775,0.488001,1.125492,-0.025690,-0.531719,-0.581152,0.155424,-0.044298,-1.218727,-0.572934,0.063798,0.089971,-1.770498,-0.060031,0.055019,0.000000,-0.122030,0.001314,-0.000000
4.830000,2.006240,1.432790,-1.495024,0.482681,1.119619,-0.024165,-0.532158,-0.593334,0.149611,-0.043424,-1.217569,-0.589330,0.110996,0.142880,-1.508674,-0.061250,0.055031,0.000000,-0.121644,0.001129,-0.000000
4.840000,2.011040,1.443956,-1.495258,0.477358,1.113625,-0.022699,-0.532586,-0.605501,0.143646,-0.042079,-1.215843,-0.603110,0.157916,0.203767,-1.247489,-0.062464,0.055041,0.000000,-0.121211,0.000911,-0.000000
4.850000,2.015787,1.455062,-1.495478,0.472030,1.107509,-0.021293,-0.532998,-0.617648,0.137557,-0.040267,-1.213468,-0.614285,0.204435,0.272439,-0.987826,-0.063674,0.055049,0.000000,-0.120724,0.000660,-0.000000
4.860000,2.020480,1.466106,-1.495684,0.466698,1.101272,-0.019948,-0.533390,-0.629769,0.131370,-0.037985,-1.210411,-0.622831,0.250239,0.349771,-0.731650,-0.064878,0.055054,0.000000,-0.120181,0.000376,-0.000000
4.870000,2.025121,1.477087,-1.495877,0.461362,1.094914,-0.018665,-0.533756,-0.641854,0.125109,-0.035256,-1.206496,-0.628880,0.295421,0.434373,-0.478627,-0.066077,0.055057,0.000000,-0.119566,0.000061,0.000000
4.880000,2.029708,1.488004,-1.496058,0.456023,1.088435,-0.017446,-0.534093,-0.653896,0.118801,-0.032079,-1.201700,-0.632417,0.339883,0.525923,-0.229506,-0.067269,0.055055,0.000000,-0.118876,-0.000285,0.000000
4.890000,2.034241,1.498855,-1.496226,0.450680,1.081836,-0.016290,-0.534396,-0.665885,0.112469,-0.028461,-1.195956,-0.633485,0.383527,0.624098,0.014965,-0.068454,0.055051,0.000000,-0.118108,-0.000661,-0.000000
4.900000,2.038721,1.509640,-1.496384,0.445335,1.075118,-0.015197,-0.534661,-0.677811,0.106139,-0.024411,-1.189197,-0.632135,0.426252,0.728575,0.254036,-0.069631,0.055042,0.000000,-0.117254,-0.001068,0.000000
4.910000,2.043148,1.520357,-1.496530,0.439987,1.068280,-0.014167,-0.534883,-0.689665,0.099835,-0.019930,-1.181389,-0.628366,0.467722,0.839658,0.485461,-0.070799,0.055029,0.000000,-0.116313,-0.001504,0.000000
4.920000,2.047521,1.531005,-1.496667,0.434637,1.061325,-0.013200,-0.535058,-0.701435,0.093579,-0.015050,-1.172414,-0.622382,0.508106,0.956321,0.710172,-0.071957,0.055012,0.000000,-0.115272,-0.001967,-0.000000
4.930000,2.051841,1.541583,-1.496795,0.429286,1.054252,-0.012295,-0.535183,-0.713110,0.087395,-0.009772,-1.162245,-0.614187,0.547334,1.078164,0.927603,-0.073104,0.054990,0.000000,-0.114131,-0.002458,-0.000000
4.940000,2.056107,1.552090,-1.496913,0.423934,1.047063,-0.011451,-0.535252,-0.724676,0.081303,-0.004107,-1.150834,-0.603856,0.585337,1.204788,1.137189,-0.074239,0.054962,0.000000,-0.112885,-0.002976,0.000000
4.950000,2.060319,1.562524,-1.497024,0.418581,1.039759,-0.010668,-0.535264,-0.736122,0.075324,0.001931,-1.138135,-0.591471,0.622046,1.335792,1.338363,-0.075362,0.054930,0.000000,-0.111530,-0.003519,0.000000
4.960000,2.064478,1.572885,-1.497127,0.413229,1.032341,-0.009945,-0.535213,-0.747434,0.069481,0.008340,-1.124112,-0.577050,0.657132,1.470959,1.528843,-0.076470,0.054892,0.000000,-0.110064,-0.004087,-0.000000
4.970000,2.068584,1.583171,-1.497223,0.407877,1.024811,-0.009278,-0.535096,-0.758600,0.063790,0.015080,-1.108712,-0.560848,0.690816,1.609685,1.709991,-0.077562,0.054848,0.000000,-0.108480,-0.004678,0.000000
4.980000,2.072636,1.593381,-1.497313,0.402527,1.017169,-0.008668,-0.534910,-0.769604,0.058269,0.022151,-1.091908,-0.542883,0.723060,1.751548,1.881452,-0.078639,0.054798,0.000000,-0.106776,-0.005293,-0.000000
4.990000,2.076634,1.603514,-1.497397,0.397179,1.009419,-0.008112,-0.534652,-0.780433,0.052937,0.029537,-1.073672,-0.523253,0.753828,1.896127,2.042871,-0.079698,0.054742,0.000000,-0.104949,-0.005929,0.000000
5.000000,2.080579,1.613569,-1.497475,0.391834,1.001561,-0.007609,-0.534318,-0.791073,0.047810,0.037223,-1.053978,-0.502060,0.783081,2.043001,2.193892,-0.080737,0.054679,0.000000,-0.102998,-0.006586,-0.000000
5.010000,2.084471,1.623544,-1.497549,0.386493,0.993598,-0.007155,-0.533906,-0.801508,0.042902,0.045202,-1.032799,-0.479341,0.810548,2.191585,2.332410,-0.081757,0.054609,0.000000,-0.100919,-0.007265,0.000000
5.020000,2.088309,1.633440,-1.497618,0.381157,0.985532,-0.006750,-0.533413,-0.811724,0.038227,0.053439,-1.010134,-0.455370,0.836453,2.341640,2.460035,-0.082755,0.054533,0.000000,-0.098711,-0.007961,0.000000
5.030000,2.092094,1.643255,-1.497684,0.375825,0.977365,-0.006390,-0.532837,-0.821705,0.033799,0.061926,-0.985963,-0.430178,0.860788,2.492762,2.576625,-0.083731,0.054450,0.000000,-0.096372,-0.008676,0.000000
5.040000,2.095826,1.652987,-1.497746,0.370500,0.969099,-0.006073,-0.532174,-0.831438,0.029627,0.070649,-0.960277,-0.403875,0.883543,2.644551,2.682040,-0.084682,0.054359,0.000000,-0.093901,-0.009409,0.000000
5.050000,2.099504,1.662636,-1.497806,0.365182,0.960737,-0.005797,-0.531423,-0.840906,0.025724,0.079592,-0.933071,-0.376575,0.904710,2.796603,2.776137,-0.085608,0.054261,0.000000,-0.091296,-0.010158,0.000000
5.060000,2.103129,1.672202,-1.497862,0.359872,0.952282,-0.005558,-0.530581,-0.850094,0.022100,0.088746,-0.904329,-0.348326,0.924091,2.948113,2.857143,-0.086508,0.054155,0.000000,-0.088556,-0.010923,-0.000000
5.070000,2.106702,1.681682,-1.497917,0.354571,0.943736,-0.005354,-0.529647,-0.858987,0.018760,0.098077,-0.874092,-0.319397,0.941889,3.099132,2.926750,-0.087379,0.054041,0.000000,-0.085683,-0.011702,-0.000000
5.080000,2.110221,1.691076,-1.497970,0.349279,0.935103,-0.005182,-0.528619,-0.867571,0.015714,0.107578,-0.842349,-0.289828,0.958116,3.249308,2.985018,-0.088221,0.053920,0.000000,-0.082675,-0.012496,0.000000
5.090000,2.113687,1.700384,-1.498021,0.343999,0.926386,-0.005038,-0.527495,-0.875829,0.012966,0.117234,-0.809110,-0.259734,0.972788,3.398287,3.032007,-0.089032,0.053790,0.000000,-0.079532,-0.013302,0.000000
5.100000,2.117101,1.709603,-1.498070,0.338730,0.917587,-0.004921,-0.526274,-0.883748,0.010520,0.127029,-0.774389,-0.229226,0.985917,3.545718,3.067775,-0.089811,0.053653,0.000000,-0.076253,-0.014121,0.000000
5.110000,2.120462,1.718735,-1.498119,0.333474,0.908712,-0.004827,-0.524954,-0.891312,0.008383,0.136952,-0.738182,-0.198360,0.997387,3.690738,3.090972,-0.090557,0.053507,0.000000,-0.072839,-0.014952,0.000000
5.120000,2.123770,1.727777,-1.498167,0.328231,0.899762,-0.004753,-0.523535,-0.898507,0.006554,0.146977,-0.700559,-0.167380,1.007359,3.833567,3.103240,-0.091267,0.053352,0.000000,-0.069293,-0.015793,0.000000
5.130000,2.127027,1.736730,-1.498214,0.323003,0.890743,-0.004695,-0.522014,-0.905319,0.005035,0.157095,-0.661519,-0.136331,1.015861,3.973914,3.104810,-0.091942,0.053190,0.000000,-0.065615,-0.016644,0.000000
5.140000,2.130231,1.745592,-1.498261,0.317791,0.881657,-0.004651,-0.520392,-0.911733,0.003827,0.167290,-0.621090,-0.105318,1.022926,4.111490,3.095914,-0.092579,0.053018,0.000000,-0.061804,-0.017505,-0.000000
5.150000,2.133382,1.754363,-1.498307,0.312596,0.872510,-0.004617,-0.518668,-0.917736,0.002928,0.177548,-0.579299,-0.074446,1.028582,4.246004,3.076785,-0.093178,0.052838,0.000000,-0.057864,-0.018374,0.000000
5.160000,2.136483,1.763042,-1.498353,0.307418,0.863304,-0.004591,-0.516841,-0.923314,0.002338,0.187859,-0.536162,-0.043773,1.032804,4.376706,3.046556,-0.093736,0.052649,0.000000,-0.053793,-0.019251,0.000000
5.170000,2.139531,1.771629,-1.498399,0.302259,0.854045,-0.004570,-0.514911,-0.928455,0.002052,0.198202,-0.491757,-0.013498,1.035685,4.503823,3.006691,-0.094253,0.052451,0.000000,-0.049597,-0.020135,0.000000
5.180000,2.142528,1.780123,-1.498445,0.297120,0.844736,-0.004549,-0.512877,-0.933145,0.002066,0.208568,-0.446099,0.016330,1.037260,4.627121,2.957558,-0.094728,0.052244,0.000000,-0.045276,-0.021026,0.000000
5.190000,2.145473,1.788523,-1.498490,0.292002,0.835383,-0.004527,-0.510740,-0.937373,0.002377,0.218943,-0.399228,0.045623,1.037566,4.746366,2.899521,-0.095158,0.052029,0.000000,-0.040832,-0.021922,-0.000000
5.200000,2.148368,1.796830,-1.498535,0.286906,0.825991,-0.004501,-0.508498,-0.941126,0.002977,0.229315,-0.351186,0.074292,1.036640,4.861324,2.832948,-0.095544,0.051804,0.000000,-0.036268,-0.022824,-0.000000
5.210000,2.151212,1.805043,-1.498580,0.281832,0.816563,-0.004467,-0.506153,-0.944392,0.003860,0.239672,-0.302003,0.102285,1.034527,4.971421,2.757454,-0.095883,0.051570,0.000000,-0.031586,-0.023730,-0.000000
5.220000,2.154005,1.813162,-1.498625,0.276783,0.807104,-0.004423,-0.503705,-0.947162,0.005020,0.250002,-0.251758,0.129449,1.031254,5.076806,2.674248,-0.096175,0.051327,0.000000,-0.026790,-0.024639,0.000000
5.230000,2.156747,1.821185,-1.498669,0.271759,0.797621,-0.004366,-0.501153,-0.949424,0.006447,0.260293,-0.200483,0.155745,1.026856,5.177286,2.583789,-0.096419,0.051075,0.000000,-0.021882,-0.025552,-0.000000
5.240000,2.159440,1.829114,-1.498712,0.266760,0.788118,-0.004293,-0.498499,-0.951169,0.008132,0.270535,-0.148229,0.181102,1.021368,5.272669,2.486535,-0.096613,0.050814,0.000000,-0.016866,-0.026468,0.000000
5.250000,2.162083,1.836947,-1.498754,0.261789,0.778599,-0.004202,-0.495743,-0.952386,0.010065,0.280717,-0.095047,0.205455,1.014826,5.362763,2.382944,-0.096756,0.050543,0.000000,-0.011746,-0.027385,0.000000
5.260000,2.164676,1.844686,-1.498796,0.256846,0.769072,-0.004091,-0.492885,-0.953067,0.012237,0.290826,-0.040986,0.228757,1.007334,5.447211,2.273084,-0.096847,0.050264,0.000000,-0.006524,-0.028303,-0.000000
5.270000,2.167220,1.852329,-1.498836,0.251932,0.759540,-0.003957,-0.489927,-0.953203,0.014637,0.300857,0.013885,0.250916,0.998851,5.526005,2.157852,-0.096886,0.049975,0.000000,-0.001205,-0.029222,-0.000000
5.280000,2.169715,1.859877,-1.498875,0.247048,0.750009,-0.003797,-0.486868,-0.952786,0.017252,0.310799,0.069515,0.271898,0.989402,5.598975,2.037754,-0.096871,0.049676,0.000000,0.004206,-0.030140,0.000000
5.290000,2.172161,1.867329,-1.498912,0.242195,0.740486,-0.003611,-0.483711,-0.951810,0.020070,0.320642,0.125845,0.291657,0.979015,5.665947,1.913297,-0.096801,0.049369,0.000000,0.009705,-0.031058,0.000000
5.300000,2.174559,1.874686,-1.498947,0.237374,0.730975,-0.003395,-0.480456,-0.950267,0.023081,0.330377,0.182813,0.310151,0.967718,5.726750,1.784986,-0.096677,0.049052,0.000000,0.015287,-0.031974,0.000000
5.310000,2.176908,1.881949,-1.498980,0.232586,0.721483,-0.003149,-0.477104,-0.948152,0.026269,0.339989,0.240358,0.327347,0.955648,5.781225,1.653292,-0.096495,0.048726,0.000000,0.020947,-0.032887,-0.000000
5.320000,2.179210,1.889116,-1.499010,0.227832,0.712014,-0.002869,-0.473657,-0.945458,0.029623,0.349482,0.298416,0.343209,0.942707,5.829186,1.518761,-0.096257,0.048391,0.000000,0.026680,-0.033797,-0.000000
5.330000,2.181465,1.896189,-1.499037,0.223113,0.702575,-0.002556,-0.470115,-0.942182,0.033129,0.358841,0.356920,0.357714,0.928910,5.870458,1.381904,-0.095962,0.048047,0.000000,0.032480,-0.034703,-0.000000
5.340000,2.183673,1.903168,-1.499061,0.218430,0.693172,-0.002206,-0.466480,-0.938319,0.036773,0.368057,0.415802,0.370841,0.914268,5.904868,1.243232,-0.095608,0.047694,0.000000,0.038341,-0.035604,0.000000
5.350000,2.185834,1.910053,-1.499081,0.213784,0.683811,-0.001820,-0.462754,-0.933865,0.040541,0.377123,0.474993,0.382574,0.898796,5.932242,1.103255,-0.095195,0.047332,0.000000,0.044257,-0.036499,0.000000
5.360000,2.187949,1.916844,-1.499097,0.209175,0.674497,-0.001395,-0.458938,-0.928818,0.044419,0.386025,0.534416,0.392892,0.882645,5.952565,0.962769,-0.094722,0.046961,0.000000,0.050221,-0.037387,0.000000
5.370000,2.190017,1.923543,-1.499109,0.204605,0.665237,-0.000931,-0.455034,-0.923176,0.048394,0.394767,0.594013,0.401816,0.865673,5.965485,0.821964,-0.094190,0.046581,0.000000,0.056226,-0.038268,-0.000000
5.380000,2.192041,1.930149,-1.499116,0.200075,0.656035,-0.000427,-0.451044,-0.916938,0.052451,0.403336,0.653701,0.409332,0.847877,5.970809,0.681317,-0.093598,0.046192,0.000000,0.062266,-0.039141,0.000000
5.390000,2.194019,1.936664,-1.499117,0.195585,0.646900,0.000118,-0.446968,-0.910102,0.056576,0.411722,0.713403,0.415444,0.829253,5.968345,0.541302,-0.092945,0.045795,0.000000,0.068331,-0.040003,0.000000
5.400000,2.195953,1.943087,-1.499113,0.191136,0.637835,0.000705,-0.442810,-0.902670,0.060755,0.419918,0.773041,0.420162,0.809798,5.957898,0.402395,-0.092231,0.045389,0.000000,0.074416,-0.040855,0.000000
5.410000,2.197842,1.949421,-1.499103,0.186729,0.628848,0.001333,-0.438570,-0.894642,0.064975,0.427909,0.832524,0.423476,0.789654,5.939514,0.265627,-0.091456,0.044974,0.000000,0.080509,-0.041695,0.000000
5.420000,2.199687,1.955665,-1.499086,0.182365,0.619945,0.002004,-0.434252,-0.886020,0.069220,0.435702,0.891793,0.425456,0.768654,5.912732,0.130851,-0.090621,0.044551,0.000000,0.086605,-0.042522,-0.000000
5.430000,2.201489,1.961820,-1.499063,0.178044,0.611130,0.002718,-0.429857,-0.876807,0.073479,0.443280,0.950750,0.426101,0.746777,5.877331,-0.001527,-0.089724,0.044120,0.000000,0.092693,-0.043336,0.000000
5.440000,2.203248,1.967887,-1.499032,0.173768,0.602410,0.003474,-0.425387,-0.867006,0.077738,0.450634,1.009310,0.425435,0.724001,5.833087,-0.131096,-0.088767,0.043681,0.000000,0.098763,-0.044133,-0.000000
5.450000,2.204965,1.973868,-1.498993,0.169536,0.593792,0.004273,-0.420845,-0.856622,0.081984,0.457757,1.067382,0.423489,0.700306,5.779778,-0.257451,-0.087749,0.043234,0.000000,0.104807,-0.044914,-0.000000
5.460000,2.206639,1.979764,-1.498946,0.165351,0.585280,0.005114,-0.416233,-0.845661,0.086203,0.464632,1.124865,0.420268,0.675802,5.717429,-0.379430,-0.086671,0.042780,0.000000,0.110813,-0.045677,-0.000000
5.470000,2.208272,1.985574,-1.498891,0.161212,0.576880,0.005997,-0.411553,-0.834127,0.090385,0.471263,1.181688,0.415880,0.650320,5.645540,-0.497471,-0.085533,0.042317,0.000000,0.116772,-0.046420,-0.000000
5.480000,2.209864,1.991302,-1.498826,0.157120,0.568599,0.006921,-0.406809,-0.822030,0.094517,0.477635,1.237743,0.410333,0.623822,5.563859,-0.611258,-0.084336,0.041848,0.000000,0.122673,-0.047143,0.000000
5.490000,2.211415,1.996947,-1.498752,0.153076,0.560442,0.007887,-0.402002,-0.809375,0.098588,0.483736,1.292931,0.403670,0.596272,5.472134,-0.720475,-0.083080,0.041371,0.000000,0.128503,-0.047843,-0.000000
5.500000,2.212925,2.002511,-1.498668,0.149080,0.552414,0.008893,-0.397135,-0.796174,0.102587,0.489557,1.347151,0.395940,0.567632,5.370112,-0.824807,-0.081766,0.040888,0.000000,0.134252,-0.048518,0.000000
5.510000,2.214396,2.007995,-1.498574,0.145134,0.544520,0.009938,-0.392212,-0.782436,0.106503,0.495081,1.400291,0.387157,0.537966,5.257726,-0.923072,-0.080395,0.040398,0.000000,0.139907,-0.049168,-0.000000
5.520000,2.215828,2.013402,-1.498469,0.141236,0.536767,0.011022,-0.387234,-0.768172,0.110327,0.500308,1.452261,0.377458,0.507124,5.134515,-1.015927,-0.078968,0.039901,0.000000,0.145456,-0.049791,0.000000
5.530000,2.217221,2.018731,-1.498354,0.137389,0.529158,0.012144,-0.382206,-0.753395,0.114049,0.505220,1.502944,0.366857,0.475055,5.000206,-1.103163,-0.077486,0.039399,0.000000,0.150885,-0.050385,0.000000
5.540000,2.218576,2.023985,-1.498226,0.133592,0.521700,0.013303,-0.377131,-0.738118,0.117661,0.509805,1.552228,0.355414,0.441710,4.854522,-1.184569,-0.075951,0.038891,0.000000,0.156183,-0.050947,0.000000
5.550000,2.219893,2.029166,-1.498087,0.129847,0.514398,0.014497,-0.372011,-0.722356,0.121155,0.514049,1.599996,0.343186,0.407039,4.697190,-1.259936,-0.074363,0.038377,0.000000,0.161334,-0.051477,-0.000000
5.560000,2.221173,2.034274,-1.497936,0.126152,0.507255,0.015726,-0.366851,-0.706124,0.124522,0.517939,1.646128,0.330201,0.371048,4.528016,-1.328167,-0.072725,0.037858,0.000000,0.166326,-0.051972,0.000000
5.570000,2.222416,2.039311,-1.497773,0.122510,0.500277,0.016987,-0.361654,-0.689439,0.127757,0.521463,1.690512,0.316604,0.333625,4.346633,-1.390050,-0.071037,0.037335,0.000000,0.171144,-0.052430,-0.000000
5.580000,2.223624,2.044280,-1.497596,0.118919,0.493467,0.018280,-0.356423,-0.672320,0.130852,0.524606,1.733020,0.302421,0.294715,4.152756,-1.445482,-0.069302,0.036807,0.000000,0.175774,-0.052850,0.000000
5.590000,2.224795,2.049181,-1.497407,0.115381,0.486832,0.019604,-0.351163,-0.654785,0.133803,0.527352,1.773525,0.287717,0.254261,3.946100,-1.494364,-0.067522,0.036276,0.000000,0.180201,-0.053229,-0.000000
5.600000,2.225931,2.054017,-1.497204,0.111896,0.480373,0.020956,-0.345878,-0.636856,0.136605,0.529686,1.811898,0.272556,0.212208,3.726380,-1.536595,-0.065699,0.035740,0.000000,0.184409,-0.053565,-0.000000
5.610000,2.227033,2.058789,-1.496988,0.108464,0.474096,0.022335,-0.340571,-0.618555,0.139253,0.531592,1.848009,0.256975,0.168485,3.493286,-1.571256,-0.063835,0.035202,0.000000,0.188384,-0.053856,0.000000
5.620000,2.228101,2.063500,-1.496757,0.105085,0.468003,0.023740,-0.335247,-0.599904,0.141743,0.533051,1.881719,0.241117,0.123052,3.246561,-1.599165,-0.061932,0.034661,0.000000,0.192110,-0.054100,0.000000
5.630000,2.229135,2.068150,-1.496513,0.101759,0.462099,0.025170,-0.329911,-0.580929,0.144074,0.534047,1.912893,0.225014,0.075854,2.985923,-1.620319,-0.059994,0.034118,0.000000,0.195570,-0.054295,0.000000
5.640000,2.230136,2.072742,-1.496254,0.098486,0.456386,0.026621,-0.324568,-0.561655,0.146243,0.534562,1.941391,0.208733,0.026836,2.711089,-1.634719,-0.058022,0.033573,0.000000,0.198749,-0.054437,0.000000
5.650000,2.231105,2.077278,-1.495980,0.095268,0.450867,0.028094,-0.319222,-0.542110,0.148249,0.534577,1.967067,0.192342,-0.024056,2.421779,-1.642363,-0.056020,0.033028,0.000000,0.201631,-0.054526,0.000000
5.660000,2.232042,2.081760,-1.495692,0.092102,0.445544,0.029586,-0.313878,-0.522324,0.150090,0.534078,1.989780,0.175882,-0.076977,2.117627,-1.642585,-0.053990,0.032481,0.000000,0.204198,-0.054559,0.000000
5.670000,2.232947,2.086190,-1.495389,0.088990,0.440421,0.031095,-0.308542,-0.502325,0.151766,0.533035,2.009373,0.159483,-0.131869,1.798445,-1.636132,-0.051937,0.031935,0.000000,0.206435,-0.054533,0.000000
5.680000,2.233822,2.090569,-1.495070,0.085931,0.435498,0.032621,-0.303219,-0.482147,0.153280,0.531434,2.025698,0.143182,-0.188776,1.463959,-1.623082,-0.049863,0.031389,0.000000,0.208323,-0.054445,0.000000
5.690000,2.234666,2.094901,-1.494736,0.082926,0.430778,0.034160,-0.297915,-0.461823,0.154631,0.529253,2.038600,0.127043,-0.247739,1.113898,-1.603518,-0.047772,0.030845,0.000000,0.209847,-0.054295,0.000000
5.700000,2.235480,2.099186,-1.494387,0.079973,0.426262,0.035713,-0.292636,-0.441387,0.155821,0.526472,2.047923,0.111133,-0.308802,0.747990,-1.577520,-0.045667,0.030303,0.000000,0.210989,-0.054078,-0.000000
5.710000,2.236266,2.103427,-1.494022,0.077073,0.421951,0.037276,-0.287388,-0.420877,0.156854,0.523078,2.053507,0.095496,-0.372223,0.365950,-1.544713,-0.043553,0.029763,0.000000,0.211732,-0.053794,-0.000000
5.720000,2.237022,2.107625,-1.493641,0.074225,0.417845,0.038849,-0.282177,-0.400330,0.157732,0.519030,2.055188,0.080239,-0.437801,-0.032480,-1.505688,-0.041434,0.029226,0.000000,0.212058,-0.053438,0.000000
5.730000,2.237750,2.111784,-1.493245,0.071429,0.413944,0.040430,-0.277009,-0.379786,0.158460,0.514315,2.052802,0.065403,-0.505554,-0.447569,-1.460582,-0.039313,0.028693,0.000000,0.211950,-0.053009,-0.000000
