time,x,y,z,vx,vy,vz,ax,ay,az,jx,jy,jz,sx,sy,sz
0.000000,-1.334158,-2.056827,1.409904,0.009286,0.017727,0.007834,-0.082235,-0.838542,-0.066742,-1.167040,18.360373,0.411372,171.704723,-294.178326,-39.205780
0.010000,-1.334070,-2.056689,1.409979,0.008433,0.010212,0.007181,-0.085711,-0.668982,-0.064512,0.433392,15.616706,0.042251,148.715277,-255.181965,-34.668115
0.020000,-1.333989,-2.056618,1.410047,0.007621,0.004262,0.006533,-0.074300,-0.524970,-0.065751,1.813787,13.244495,-0.282971,127.682212,-219.857309,-30.424486
0.030000,-1.333917,-2.056599,1.410109,0.006989,-0.000361,0.005856,-0.050105,-0.402974,-0.070035,2.993252,11.207913,-0.567183,108.513761,-188.026480,-26.464357
0.040000,-1.333849,-2.056621,1.410164,0.006655,-0.003860,0.005123,-0.015044,-0.299807,-0.076967,3.989972,9.472912,-0.813168,91.118158,-159.511602,-22.777197
0.050000,-1.333782,-2.056673,1.410211,0.006719,-0.006410,0.004309,0.029143,-0.212618,-0.086180,4.821218,8.007221,-1.023602,75.403637,-134.134799,-19.352471
0.060000,-1.333713,-2.056747,1.410250,0.007263,-0.008157,0.003393,0.080883,-0.138867,-0.097329,5.503342,6.780349,-1.201057,61.278433,-111.718192,-16.179648
0.070000,-1.333635,-2.056834,1.410279,0.008357,-0.009225,0.002357,0.138764,-0.076311,-0.110099,6.051779,5.763583,-1.347999,48.650780,-92.083906,-13.248192
0.080000,-1.333543,-2.056929,1.410297,0.010055,-0.009714,0.001187,0.201522,-0.022985,-0.124196,6.481044,4.929989,-1.466790,37.428911,-75.054063,-10.547572
0.090000,-1.333432,-2.057027,1.410302,0.012400,-0.009709,-0.000130,0.268033,0.022816,-0.139349,6.804737,4.254413,-1.559685,27.521060,-60.450786,-8.067254
0.100000,-1.333293,-2.057122,1.410294,0.015425,-0.009278,-0.001603,0.337307,0.062552,-0.155310,7.035539,3.713478,-1.628835,18.835462,-48.096199,-5.796704
0.110000,-1.333121,-2.057211,1.410269,0.019152,-0.008474,-0.003238,0.408474,0.097462,-0.171853,7.185215,3.285586,-1.676283,11.280351,-37.812425,-3.725390
0.120000,-1.332908,-2.057290,1.410228,0.023598,-0.007341,-0.005041,0.480777,0.128574,-0.188770,7.264609,2.950920,-1.703971,4.763961,-29.421586,-1.842778
0.130000,-1.332647,-2.057357,1.410168,0.028770,-0.005913,-0.007014,0.553565,0.156731,-0.205873,7.283650,2.691438,-1.713733,-0.805475,-22.745807,-0.138335
0.140000,-1.332330,-2.057408,1.410087,0.034669,-0.004214,-0.009159,0.626279,0.182599,-0.222991,7.251350,2.490880,-1.707297,-5.519721,-17.607210,1.398473
0.150000,-1.331951,-2.057440,1.409984,0.041293,-0.002267,-0.011474,0.698448,0.206696,-0.239970,7.175801,2.334763,-1.686287,-9.470545,-13.827917,2.778178
0.160000,-1.331502,-2.057452,1.409857,0.048635,-0.000085,-0.013957,0.769675,0.229400,-0.256673,7.064178,2.210383,-1.652222,-12.749712,-11.230054,4.011314
0.170000,-1.330976,-2.057441,1.409705,0.056683,0.002318,-0.016606,0.839632,0.250973,-0.272976,6.922739,2.106816,-1.606514,-15.448987,-9.635741,5.108414
0.180000,-1.330366,-2.057405,1.409525,0.065422,0.004931,-0.019415,0.908048,0.271575,-0.288769,6.756825,2.014916,-1.550472,-17.660138,-8.867103,6.080012
0.190000,-1.329665,-2.057342,1.409316,0.074838,0.007746,-0.022379,0.974702,0.291285,-0.303955,6.570858,1.927315,-1.485297,-19.474930,-8.746263,6.936641
0.200000,-1.328867,-2.057250,1.409077,0.084910,0.010754,-0.025492,1.039410,0.310117,-0.318448,6.368342,1.838424,-1.412087,-20.985128,-9.095344,7.688833
0.210000,-1.327965,-2.057126,1.408806,0.095611,0.013957,-0.028745,1.102322,0.327594,-0.332179,6.179533,1.703663,-1.332410,-22.981339,-8.706668,8.361669
0.220000,-1.326953,-2.056970,1.408501,0.106939,0.017317,-0.032132,1.162938,0.344199,-0.345075,5.940602,1.617517,-1.245787,-24.770917,-8.558256,8.949354
0.230000,-1.325824,-2.056779,1.408162,0.118861,0.020838,-0.035644,1.221078,0.359946,-0.357077,5.684783,1.531870,-1.153677,-26.360055,-8.598332,9.460641
0.240000,-1.324573,-2.056553,1.407788,0.131352,0.024513,-0.039271,1.276584,0.374833,-0.368133,5.414049,1.445095,-1.056800,-27.754947,-8.775114,9.904281
0.250000,-1.323195,-2.056289,1.407377,0.144384,0.028332,-0.043003,1.329316,0.388841,-0.378199,5.130311,1.356084,-0.955788,-28.961786,-9.036825,10.289026
0.260000,-1.321684,-2.055986,1.406928,0.157928,0.032291,-0.046831,1.379164,0.401807,-0.387250,4.836436,1.251581,-0.852454,-30.012448,-9.011759,10.655640
0.270000,-1.320035,-2.055642,1.406440,0.171957,0.036370,-0.050744,1.426012,0.413873,-0.395236,4.531804,1.161498,-0.744255,-30.884301,-9.007238,10.976945
0.280000,-1.318243,-2.055258,1.405912,0.186438,0.040565,-0.054732,1.469774,0.425037,-0.402125,4.219336,1.071410,-0.633050,-31.580391,-9.010659,11.257771
0.290000,-1.316305,-2.054831,1.405345,0.201342,0.044867,-0.058783,1.510379,0.435301,-0.407889,3.900772,0.981300,-0.519219,-32.103769,-9.009418,11.502952
0.300000,-1.314215,-2.054360,1.404737,0.216635,0.049268,-0.062886,1.547775,0.444664,-0.412502,3.577826,0.891279,-0.403094,-32.457483,-8.990910,11.717320
0.310000,-1.311971,-2.053845,1.404087,0.232287,0.053759,-0.067029,1.581911,0.453086,-0.415958,3.250798,0.797761,-0.286268,-32.609738,-8.846032,11.938764
0.320000,-1.309568,-2.053285,1.403396,0.248263,0.058328,-0.071201,1.612788,0.460624,-0.418220,2.924607,0.710153,-0.165878,-32.602692,-8.670496,12.135011
0.330000,-1.307005,-2.052678,1.402663,0.264532,0.062968,-0.075389,1.640406,0.467296,-0.419270,2.599251,0.624456,-0.043649,-32.443663,-8.463514,12.306847
0.340000,-1.304277,-2.052025,1.401888,0.281060,0.067671,-0.079582,1.664781,0.473121,-0.419088,2.276216,0.540990,0.080180,-32.139965,-8.224299,12.455055
0.350000,-1.301383,-2.051325,1.401071,0.297817,0.072428,-0.083767,1.685943,0.478124,-0.417661,1.956910,0.460080,0.205376,-31.698915,-7.952062,12.580421
0.360000,-1.298320,-2.050576,1.400213,0.314769,0.077231,-0.087931,1.703929,0.482321,-0.414986,1.642003,0.381001,0.330864,-31.110950,-7.619234,12.705220
0.370000,-1.295087,-2.049780,1.399313,0.331885,0.082072,-0.092062,1.718805,0.485756,-0.411040,1.334339,0.306604,0.458442,-30.402330,-7.255090,12.806115
0.380000,-1.291682,-2.048935,1.398372,0.349135,0.086944,-0.096147,1.730641,0.488465,-0.405814,1.034327,0.235995,0.586901,-29.582437,-6.862119,12.881257
0.390000,-1.288104,-2.048041,1.397390,0.366488,0.091839,-0.100174,1.739520,0.490489,-0.399300,0.743030,0.169450,0.715975,-28.660653,-6.442813,12.928799
0.400000,-1.284352,-2.047098,1.396369,0.383916,0.096752,-0.104129,1.745534,0.491869,-0.391494,0.461422,0.107218,0.845378,-27.646360,-5.999665,12.946894
0.410000,-1.280425,-2.046106,1.395308,0.401389,0.101675,-0.107999,1.748784,0.492646,-0.382395,0.190358,0.049338,0.974617,-26.548388,-5.530378,12.938533
0.420000,-1.276324,-2.045065,1.394209,0.418882,0.106603,-0.111773,1.749379,0.492871,-0.372002,-0.069325,-0.003542,1.103821,-25.376740,-5.042818,12.896439
0.430000,-1.272048,-2.043974,1.393073,0.436369,0.111531,-0.115435,1.747437,0.492592,-0.360320,-0.316962,-0.051468,1.232425,-24.140863,-4.540062,12.818171
0.440000,-1.267597,-2.042834,1.391901,0.453823,0.116453,-0.118975,1.743082,0.491859,-0.347357,-0.551959,-0.094303,1.360055,-22.850208,-4.025188,12.701291
0.450000,-1.262971,-2.041645,1.390694,0.471223,0.121366,-0.122378,1.736442,0.490723,-0.333124,-0.773815,-0.131941,1.486314,-21.514225,-3.501274,12.543357
0.460000,-1.258172,-2.040407,1.389454,0.488545,0.126266,-0.125633,1.727655,0.489239,-0.317632,-0.981743,-0.164201,1.611164,-20.151983,-2.974103,12.332176
0.470000,-1.253201,-2.039120,1.388182,0.505769,0.131150,-0.128727,1.716853,0.487457,-0.300908,-1.176333,-0.191292,1.733244,-18.762134,-2.443717,12.076257
0.480000,-1.248057,-2.037784,1.386880,0.522876,0.136015,-0.131647,1.704175,0.485431,-0.282977,-1.356922,-0.213074,1.852536,-17.352949,-1.912861,11.774355
0.490000,-1.242744,-2.036399,1.385549,0.539847,0.140858,-0.134382,1.689762,0.483213,-0.263868,-1.523356,-0.229557,1.968573,-15.932700,-1.384283,11.425225
0.500000,-1.237261,-2.034967,1.384193,0.556665,0.145679,-0.136921,1.673755,0.480857,-0.243618,-1.675566,-0.240776,2.080878,-14.509658,-0.860729,11.027621
0.510000,-1.231611,-2.033486,1.382812,0.573317,0.150475,-0.139251,1.656305,0.478417,-0.222257,-1.812924,-0.246573,2.189664,-13.108330,-0.350620,10.562519
0.520000,-1.225795,-2.031957,1.381408,0.589787,0.155247,-0.141363,1.637543,0.475943,-0.199841,-1.937047,-0.247568,2.292760,-11.718765,0.149667,10.048631
0.530000,-1.219816,-2.030381,1.379985,0.606064,0.159994,-0.143245,1.617610,0.473483,-0.176420,-2.047360,-0.243619,2.390477,-10.347246,0.638081,9.486886
0.540000,-1.213675,-2.028757,1.378544,0.622136,0.164717,-0.144888,1.596642,0.471086,-0.152051,-2.144073,-0.234853,2.482341,-9.000057,1.112569,8.878218
0.550000,-1.207374,-2.027087,1.377088,0.637993,0.169416,-0.146283,1.574773,0.468801,-0.126794,-2.227463,-0.221421,2.567888,-7.683481,1.571079,8.223558
0.560000,-1.200916,-2.025369,1.375619,0.653628,0.174093,-0.147421,1.552144,0.466676,-0.100708,-2.297075,-0.203224,2.647377,-6.423792,2.004799,7.505789
0.570000,-1.194302,-2.023605,1.374141,0.669034,0.178750,-0.148295,1.528873,0.464751,-0.073871,-2.355182,-0.181087,2.718670,-5.204836,2.419266,6.746102
0.580000,-1.187536,-2.021794,1.372654,0.684204,0.183389,-0.148896,1.505080,0.463067,-0.046360,-2.401320,-0.154907,2.782170,-4.030448,2.813257,5.947638
0.590000,-1.180619,-2.019937,1.371164,0.699134,0.188012,-0.149220,1.480885,0.461665,-0.018255,-2.435952,-0.124894,2.837504,-2.904466,3.185549,5.113540
0.600000,-1.173554,-2.018034,1.369671,0.713821,0.192623,-0.149260,1.456398,0.460582,0.010361,-2.459583,-0.091272,2.884332,-1.830725,3.534917,4.246949
0.610000,-1.166343,-2.016085,1.368179,0.728261,0.197225,-0.149011,1.431737,0.459854,0.039407,-2.471946,-0.054019,2.922826,-0.833475,3.853628,3.338847
0.620000,-1.158989,-2.014090,1.366692,0.742455,0.201821,-0.148471,1.406991,0.459511,0.068787,-2.475533,-0.013991,2.951570,0.106363,4.147766,2.406024
0.630000,-1.151495,-2.012048,1.365211,0.756401,0.206417,-0.147635,1.382256,0.459584,0.098407,-2.470014,0.028853,2.970880,0.987450,4.416904,1.453113
0.640000,-1.143862,-2.009961,1.363740,0.770100,0.211015,-0.146502,1.357620,0.460097,0.128173,-2.455984,0.074262,2.980580,1.808452,4.660615,0.484743
0.650000,-1.136094,-2.007828,1.362282,0.783554,0.215620,-0.145071,1.333163,0.461076,0.157986,-2.434050,0.121980,2.980539,2.568032,4.878473,-0.494454
0.660000,-1.128192,-2.005649,1.360840,0.796764,0.220238,-0.143343,1.308970,0.462546,0.187752,-2.404147,0.171948,2.970798,3.247537,5.064915,-1.483074
0.670000,-1.120159,-2.003423,1.359416,0.809734,0.224873,-0.141317,1.285102,0.464521,0.217369,-2.368533,0.223420,2.951017,3.865068,5.225280,-2.472864
0.680000,-1.111998,-2.001151,1.358014,0.822468,0.229530,-0.138996,1.261619,0.467019,0.246739,-2.327050,0.276367,2.921354,4.421409,5.359769,-3.458800
0.690000,-1.103711,-1.998833,1.356637,0.834968,0.234215,-0.136383,1.238578,0.470053,0.275764,-2.280306,0.330530,2.881871,4.917344,5.468585,-4.435855
0.700000,-1.095299,-1.996467,1.355287,0.847241,0.238933,-0.133482,1.216029,0.473633,0.304345,-2.228901,0.385654,2.832683,5.353658,5.551930,-5.399002
0.710000,-1.086767,-1.994054,1.353968,0.859291,0.243689,-0.130298,1.194019,0.477769,0.332383,-2.172975,0.441606,2.773735,5.719675,5.606945,-6.337694
0.720000,-1.078114,-1.991593,1.352682,0.871123,0.248490,-0.126837,1.172580,0.482466,0.359788,-2.114185,0.497847,2.705760,6.029043,5.637268,-7.253103
0.730000,-1.069345,-1.989084,1.351433,0.882744,0.253340,-0.123105,1.151744,0.487727,0.386468,-2.052576,0.554271,2.628765,6.283948,5.643477,-8.140881
0.740000,-1.060460,-1.986526,1.350221,0.894160,0.258246,-0.119110,1.131536,0.493552,0.412335,-1.988680,0.610638,2.543049,6.486579,5.626148,-8.996677
0.750000,-1.051462,-1.983919,1.349051,0.905377,0.263213,-0.114861,1.111977,0.499939,0.437301,-1.923011,0.666717,2.448953,6.639122,5.585859,-9.816143
0.760000,-1.042353,-1.981261,1.347925,0.916402,0.268247,-0.110367,1.093082,0.506885,0.461282,-1.855878,0.722319,2.346395,6.739215,5.522209,-10.583142
0.770000,-1.033135,-1.978553,1.346845,0.927241,0.273353,-0.105639,1.074862,0.514383,0.484204,-1.788174,0.777132,2.236909,6.794153,5.436872,-11.306554
0.780000,-1.023809,-1.975794,1.345813,0.937901,0.278536,-0.100687,1.057320,0.522424,0.505997,-1.720136,0.830987,2.120419,6.806681,5.330546,-11.983475
0.790000,-1.014377,-1.972982,1.344832,0.948390,0.283803,-0.095523,1.040459,0.530998,0.526591,-1.652173,0.883676,1.997404,6.779543,5.203926,-12.610997
0.800000,-1.004842,-1.970118,1.343903,0.958713,0.289158,-0.090159,1.024275,0.540093,0.545925,-1.584668,0.935000,1.868374,6.715484,5.057710,-13.186215
0.810000,-0.995204,-1.967199,1.343029,0.968877,0.294607,-0.084608,1.008762,0.549693,0.563934,-1.518038,0.984747,1.733287,6.618800,4.893101,-13.691635
0.820000,-0.985465,-1.964225,1.342211,0.978890,0.300154,-0.078885,0.993911,0.559782,0.580575,-1.452467,1.032779,1.594077,6.490493,4.710226,-14.140726
0.830000,-0.975626,-1.961196,1.341452,0.988758,0.305804,-0.073002,0.979708,0.570342,0.595802,-1.388326,1.078893,1.450664,6.333120,4.509722,-14.532366
0.840000,-0.965690,-1.958109,1.340752,0.998486,0.311562,-0.066974,0.966138,0.581353,0.609576,-1.325893,1.122916,1.303625,6.149234,4.292223,-14.865436
0.850000,-0.955657,-1.954964,1.340113,1.008082,0.317432,-0.060815,0.953184,0.592793,0.621864,-1.265421,1.164683,1.153554,5.941391,4.058363,-15.138817
0.860000,-0.945529,-1.951760,1.339536,1.017552,0.323419,-0.054541,0.940820,0.604638,0.632633,-1.207351,1.203991,1.000493,5.717576,3.809803,-15.337272
0.870000,-0.935306,-1.948495,1.339022,1.026901,0.329526,-0.048167,0.929029,0.616864,0.641868,-1.151377,1.240782,0.846379,5.474248,3.546027,-15.475526
0.880000,-0.924991,-1.945169,1.338573,1.036134,0.335758,-0.041709,0.917784,0.629445,0.649557,-1.097925,1.274862,0.691181,5.213296,3.267544,-15.554187
0.890000,-0.914584,-1.941780,1.338188,1.045258,0.342116,-0.035181,0.907061,0.642352,0.655690,-1.047163,1.306086,0.535492,4.936609,2.974863,-15.573865
0.900000,-0.904086,-1.938326,1.337869,1.054277,0.348606,-0.028600,0.896832,0.655557,0.660267,-0.999239,1.334314,0.379898,4.646077,2.668495,-15.535167
0.910000,-0.893499,-1.934807,1.337617,1.063197,0.355228,-0.021981,0.887064,0.669028,0.663286,-0.954538,1.359391,0.224535,4.350063,2.349459,-15.427438
0.920000,-0.882823,-1.931221,1.337430,1.072020,0.361987,-0.015340,0.877731,0.682734,0.664762,-0.912563,1.381238,0.071032,4.043190,2.017691,-15.263930
0.930000,-0.872059,-1.927567,1.337310,1.080753,0.368884,-0.008691,0.868802,0.696641,0.664713,-0.873707,1.399704,-0.080564,3.726555,1.673638,-15.046631
0.940000,-0.861208,-1.923843,1.337256,1.089397,0.375920,-0.002050,0.860246,0.710716,0.663159,-0.838061,1.414671,-0.229728,3.401255,1.317746,-14.777530
0.950000,-0.850271,-1.920048,1.337269,1.097959,0.383099,0.004567,0.852030,0.724922,0.660128,-0.805707,1.426021,-0.375949,3.068386,0.950461,-14.458615
0.960000,-0.839249,-1.916180,1.337347,1.106439,0.390419,0.011147,0.844118,0.739224,0.655648,-0.776916,1.433670,-0.519023,2.734124,0.571561,-14.084737
0.970000,-0.828143,-1.912239,1.337491,1.114842,0.397883,0.017676,0.836480,0.753583,0.649761,-0.751271,1.437448,-0.657812,2.393866,0.182243,-13.665895
0.980000,-0.816953,-1.908222,1.337701,1.123170,0.405491,0.024138,0.829082,0.767960,0.642507,-0.729057,1.437282,-0.792200,2.048085,-0.216962,-13.204950
0.990000,-0.805680,-1.904129,1.337974,1.131424,0.413242,0.030521,0.821888,0.782315,0.633933,-0.710326,1.433077,-0.921781,1.697257,-0.625526,-12.704764
1.000000,-0.794324,-1.899957,1.338311,1.139608,0.421137,0.036812,0.814863,0.796608,0.624088,-0.695127,1.424742,-1.046174,1.341857,-1.042921,-12.168199
1.010000,-0.782888,-1.895706,1.338710,1.147722,0.429174,0.042999,0.807972,0.810797,0.613026,-0.683592,1.412270,-1.165142,0.984609,-1.470607,-11.595370
1.020000,-0.771370,-1.891373,1.339170,1.155768,0.437352,0.049069,0.801180,0.824839,0.600805,-0.675548,1.395394,-1.278103,0.623463,-1.905823,-10.992221
1.030000,-0.759772,-1.886958,1.339691,1.163746,0.445670,0.055012,0.794449,0.838690,0.587485,-0.671135,1.374131,-1.384896,0.258618,-2.347794,-10.361952
1.040000,-0.748095,-1.882459,1.340270,1.171657,0.454126,0.060815,0.787745,0.852307,0.573129,-0.670387,1.348418,-1.485263,-0.109726,-2.795749,-9.707760
1.050000,-0.736340,-1.877875,1.340907,1.179501,0.462716,0.066471,0.781029,0.865643,0.557802,-0.673340,1.318199,-1.578982,-0.481369,-3.248914,-9.032844
1.060000,-0.724506,-1.873204,1.341599,1.187277,0.471437,0.071968,0.774266,0.878657,0.541572,-0.679994,1.283540,-1.665818,-0.856906,-3.709425,-8.341498
1.070000,-0.712594,-1.868446,1.342345,1.194986,0.480287,0.077299,0.767417,0.891299,0.524509,-0.690452,1.244129,-1.745715,-1.235246,-4.173246,-7.635689
1.080000,-0.700606,-1.863598,1.343144,1.202625,0.489262,0.082456,0.760444,0.903524,0.506682,-0.704707,1.200068,-1.818494,-1.616095,-4.639248,-6.918483
1.090000,-0.688542,-1.858660,1.343994,1.210194,0.498356,0.087431,0.753310,0.915285,0.488163,-0.722782,1.151341,-1.884056,-1.999154,-5.106302,-6.192943
1.100000,-0.676402,-1.853631,1.344892,1.217691,0.507566,0.092217,0.745976,0.926535,0.469025,-0.744697,1.097942,-1.942335,-2.384128,-5.573279,-5.462134
1.110000,-0.664188,-1.848509,1.345838,1.225113,0.516885,0.096809,0.738404,0.937229,0.449342,-0.770350,1.039999,-1.993140,-2.773737,-6.042089,-4.732954
1.120000,-0.651900,-1.843293,1.346828,1.232458,0.526308,0.101202,0.730556,0.947319,0.429186,-0.800040,0.977245,-2.036824,-3.164299,-6.508193,-4.004163
1.130000,-0.639540,-1.837982,1.347861,1.239723,0.535829,0.105392,0.722390,0.956759,0.408630,-0.833637,0.909849,-2.073233,-3.555147,-6.970091,-3.278356
1.140000,-0.627106,-1.832576,1.348935,1.246904,0.545441,0.109374,0.713870,0.965501,0.387746,-0.871142,0.837862,-2.102410,-3.945617,-7.426280,-2.558128
1.150000,-0.614602,-1.827073,1.350048,1.253999,0.555137,0.113146,0.704955,0.973501,0.366606,-0.912546,0.761348,-2.124423,-4.335041,-7.875262,-1.846072
1.160000,-0.602027,-1.821473,1.351197,1.261002,0.564909,0.116705,0.695608,0.980714,0.345283,-0.957684,0.680476,-2.139162,-4.726611,-8.317811,-1.149968
1.170000,-0.589382,-1.815775,1.352381,1.267909,0.574748,0.120051,0.685788,0.987096,0.323845,-1.006896,0.595128,-2.147233,-5.115333,-8.749872,-0.466592
1.180000,-0.576669,-1.809978,1.353598,1.274716,0.584648,0.123182,0.675457,0.992603,0.302361,-1.059977,0.505520,-2.148543,-5.500068,-9.169663,0.202098
1.190000,-0.563888,-1.804081,1.354844,1.281417,0.594597,0.126098,0.664576,0.997192,0.280897,-1.116881,0.411782,-2.143247,-5.879678,-9.575407,0.854142
1.200000,-0.551041,-1.798086,1.356119,1.288006,0.604588,0.128800,0.653107,1.000825,0.259518,-1.177550,0.314064,-2.131522,-6.253024,-9.965321,1.487580
1.210000,-0.538128,-1.791990,1.357419,1.294477,0.614611,0.131289,0.641014,1.003461,0.238289,-1.241791,0.212561,-2.113358,-6.622139,-10.338299,2.095251
1.220000,-0.525152,-1.785793,1.358744,1.300824,0.624654,0.133567,0.628259,1.005064,0.217270,-1.309821,0.107393,-2.089458,-6.982326,-10.691806,2.681033
1.230000,-0.512112,-1.779496,1.360090,1.307039,0.634708,0.135635,0.614805,1.005598,0.196519,-1.381403,-0.001204,-2.059814,-7.332059,-11.023982,3.243605
1.240000,-0.499011,-1.773099,1.361456,1.313117,0.644762,0.137498,0.600619,1.005029,0.176092,-1.456423,-0.113009,-2.024667,-7.669812,-11.332965,3.781643
1.250000,-0.485850,-1.766601,1.362839,1.319049,0.654805,0.139159,0.585666,1.003328,0.156043,-1.534754,-0.227780,-1.984268,-7.994059,-11.616892,4.293826
1.260000,-0.472631,-1.760003,1.364238,1.324828,0.664825,0.140620,0.569914,1.000464,0.136425,-1.616203,-0.345316,-1.938711,-8.304549,-11.872411,4.774530
1.270000,-0.459354,-1.753305,1.365651,1.330445,0.674810,0.141889,0.553332,0.996413,0.117285,-1.700732,-0.465200,-1.888678,-8.598323,-12.099335,5.227260
1.280000,-0.446023,-1.746507,1.367076,1.335892,0.684749,0.142968,0.535890,0.991153,0.098666,-1.788108,-0.587202,-1.834262,-8.873701,-12.295982,5.651219
1.290000,-0.432637,-1.739610,1.368510,1.341160,0.694629,0.143864,0.517561,0.984663,0.080613,-1.878139,-0.711013,-1.775753,-9.129000,-12.460674,6.045612
1.300000,-0.419200,-1.732615,1.369952,1.346240,0.704438,0.144582,0.498319,0.976928,0.063164,-1.970616,-0.836303,-1.713451,-9.362538,-12.591732,6.409643
1.310000,-0.405713,-1.725522,1.371401,1.351123,0.714164,0.145129,0.478140,0.967932,0.046357,-2.065363,-0.962880,-1.647538,-9.571336,-12.683683,6.739347
1.320000,-0.392178,-1.718332,1.372854,1.355799,0.723793,0.145512,0.457005,0.957668,0.030224,-2.162017,-1.090025,-1.578628,-9.755166,-12.739106,7.037484
1.330000,-0.378598,-1.711046,1.374311,1.360260,0.733313,0.145736,0.434894,0.946130,0.014794,-2.260378,-1.217536,-1.506895,-9.912506,-12.756785,7.303647
1.340000,-0.364974,-1.703666,1.375768,1.364494,0.742711,0.145810,0.411793,0.933317,0.000094,-2.360174,-1.345030,-1.432663,-10.041832,-12.735504,7.537428
1.350000,-0.351309,-1.696192,1.377226,1.368492,0.751975,0.145740,0.387687,0.919231,-0.013852,-2.461117,-1.472112,-1.356256,-10.141619,-12.674050,7.738418
1.360000,-0.337605,-1.688627,1.378683,1.372244,0.761092,0.145535,0.362566,0.903875,-0.027024,-2.563061,-1.598607,-1.277902,-10.206363,-12.565300,7.903616
1.370000,-0.323865,-1.680971,1.380137,1.375740,0.770048,0.145203,0.336424,0.887263,-0.039405,-2.665315,-1.723542,-1.198179,-10.239009,-12.414668,8.035525
1.380000,-0.310091,-1.673226,1.381586,1.378970,0.778833,0.144750,0.309259,0.869410,-0.050983,-2.767730,-1.846759,-1.117303,-10.238522,-12.221664,8.134054
1.390000,-0.296286,-1.665395,1.383031,1.381922,0.787432,0.144186,0.281070,0.850335,-0.061748,-2.869971,-1.967833,-1.035609,-10.203866,-11.985796,8.199113
1.400000,-0.282453,-1.657478,1.384470,1.384588,0.795835,0.143518,0.251861,0.830062,-0.071694,-2.971690,-2.086331,-0.953433,-10.134004,-11.706571,8.230611
1.410000,-0.268595,-1.649479,1.385901,1.386956,0.804030,0.142754,0.221637,0.808615,-0.080815,-3.072782,-2.202117,-0.870985,-10.021553,-11.375934,8.225326
1.420000,-0.254715,-1.641399,1.387325,1.389017,0.812004,0.141904,0.190410,0.786031,-0.089114,-3.172283,-2.314042,-0.788898,-9.872602,-11.001884,8.186683
1.430000,-0.240816,-1.633240,1.388739,1.390761,0.819747,0.140975,0.158197,0.762347,-0.096595,-3.270111,-2.422012,-0.707362,-9.686893,-10.584854,8.114973
1.440000,-0.226901,-1.625005,1.390144,1.392178,0.827247,0.139975,0.125015,0.737606,-0.103265,-3.365897,-2.525598,-0.626707,-9.464166,-10.125280,8.010490
1.450000,-0.212974,-1.616696,1.391538,1.393258,0.834496,0.138912,0.090887,0.711851,-0.109133,-3.459270,-2.624377,-0.547260,-9.204163,-9.623594,7.873527
1.460000,-0.199037,-1.608315,1.392922,1.393992,0.841481,0.137795,0.055835,0.685132,-0.114213,-3.550179,-2.718273,-0.469154,-8.898456,-9.071575,7.699572
1.470000,-0.185095,-1.599867,1.394294,1.394372,0.848195,0.136631,0.019894,0.657505,-0.118523,-3.637481,-2.806061,-0.393159,-8.555956,-8.479374,7.494309
1.480000,-0.171151,-1.591352,1.395654,1.394388,0.854629,0.135427,-0.016903,0.629031,-0.122083,-3.721178,-2.887732,-0.319369,-8.177404,-7.848485,7.258621
1.490000,-0.157209,-1.582775,1.397003,1.394031,0.860773,0.134191,-0.054516,0.599772,-0.124918,-3.800912,-2.962907,-0.248085,-7.763543,-7.180403,6.993386
1.500000,-0.143272,-1.574138,1.398338,1.393295,0.866622,0.132931,-0.092906,0.569796,-0.127054,-3.876334,-3.031221,-0.179597,-7.315112,-6.476622,6.699487
1.510000,-0.129344,-1.565444,1.399661,1.392171,0.872167,0.131652,-0.132032,0.539168,-0.128518,-3.947461,-3.092684,-0.113917,-6.823770,-5.729576,6.370978
1.520000,-0.115429,-1.556696,1.400971,1.390652,0.877403,0.130362,-0.171839,0.507967,-0.129344,-4.013108,-3.146112,-0.051960,-6.300454,-4.950929,6.016402
1.530000,-0.101532,-1.547897,1.402268,1.388732,0.882325,0.129067,-0.212276,0.476272,-0.129569,-4.073370,-3.191606,0.006329,-5.747020,-4.143286,5.637475
1.540000,-0.087656,-1.539050,1.403553,1.386404,0.886927,0.127773,-0.253287,0.444163,-0.129231,-4.127954,-3.228889,0.060715,-5.165322,-3.309249,5.235915
1.550000,-0.073805,-1.530159,1.404824,1.383664,0.891207,0.126485,-0.294815,0.411722,-0.128369,-4.176588,-3.257712,0.110978,-4.557213,-2.451422,4.813438
1.560000,-0.059984,-1.521227,1.406082,1.380507,0.895161,0.125207,-0.336802,0.379034,-0.127022,-4.219321,-3.278136,0.157206,-3.916873,-1.565113,4.364531
1.570000,-0.046197,-1.512257,1.407328,1.376927,0.898787,0.123945,-0.379180,0.346190,-0.125240,-4.255196,-3.289281,0.198536,-3.254771,-0.661115,3.899026
1.580000,-0.032447,-1.503253,1.408561,1.372922,0.902085,0.122704,-0.421883,0.313279,-0.123067,-4.284353,-3.291311,0.235139,-2.573701,0.257074,3.419525
1.590000,-0.018740,-1.494217,1.409782,1.368489,0.905053,0.121485,-0.464844,0.280394,-0.120553,-4.306616,-3.284103,0.266889,-1.876457,1.185957,2.928630
1.600000,-0.005079,-1.485153,1.410991,1.363624,0.907693,0.120294,-0.507992,0.247628,-0.117746,-4.321837,-3.267568,0.293683,-1.165833,2.122036,2.428943
1.610000,0.008531,-1.476064,1.412188,1.358328,0.910006,0.119131,-0.551258,0.215073,-0.114694,-4.330030,-3.241750,0.315625,-0.441272,3.064329,1.918565
1.620000,0.022086,-1.466954,1.413374,1.352599,0.911995,0.118000,-0.594568,0.182824,-0.111451,-4.330788,-3.206394,0.332245,0.290670,4.006517,1.405151
1.630000,0.035582,-1.457825,1.414548,1.346437,0.913664,0.116903,-0.637849,0.150976,-0.108066,-4.324203,-3.161633,0.343729,1.026790,4.944792,0.891854
1.640000,0.049014,-1.448681,1.415712,1.339843,0.915017,0.115839,-0.681028,0.119623,-0.104593,-4.310249,-3.107524,0.350093,1.763883,5.875351,0.381828
1.650000,0.062377,-1.439526,1.416865,1.332817,0.916058,0.114811,-0.724030,0.088857,-0.101082,-4.288932,-3.044164,0.351386,2.498744,6.794387,-0.121775
1.660000,0.075669,-1.430361,1.418008,1.325363,0.916796,0.113818,-0.766781,0.058771,-0.097582,-4.260232,-2.971582,0.347667,3.226655,7.695444,-0.615241
1.670000,0.088883,-1.421191,1.419142,1.317483,0.917236,0.112859,-0.809210,0.029455,-0.094144,-4.224360,-2.890200,0.339099,3.946111,8.577693,-1.096045
1.680000,0.102017,-1.412017,1.420266,1.309180,0.917388,0.111934,-0.851245,0.000996,-0.090816,-4.181348,-2.800103,0.325799,4.654093,9.437653,-1.561101
1.690000,0.115065,-1.402844,1.421380,1.300459,0.917259,0.111042,-0.892814,-0.026519,-0.087644,-4.131326,-2.701532,0.307940,5.347582,10.271844,-2.007326
1.700000,0.128025,-1.393673,1.422487,1.291325,0.916861,0.110181,-0.933848,-0.053007,-0.084672,-4.074455,-2.594763,0.285725,6.023559,11.076784,-2.431633
1.710000,0.140890,-1.384508,1.423584,1.281784,0.916203,0.109348,-0.974279,-0.078385,-0.081946,-4.010727,-2.479871,0.259141,6.674032,11.843065,-2.824628
1.720000,0.153659,-1.375350,1.424674,1.271842,0.915297,0.108541,-1.014042,-0.102580,-0.079502,-3.940829,-2.357756,0.229042,7.301564,12.573860,-3.190309
1.730000,0.166326,-1.366202,1.425755,1.261506,0.914156,0.107757,-1.053075,-0.125517,-0.077376,-3.864780,-2.228521,0.195433,7.903745,13.266416,-3.526363
1.740000,0.178888,-1.357068,1.426829,1.250783,0.912791,0.106992,-1.091318,-0.147128,-0.075604,-3.782846,-2.092564,0.158621,8.478164,13.917977,-3.830479
1.750000,0.191340,-1.347947,1.427895,1.239682,0.911218,0.106244,-1.128713,-0.167347,-0.074214,-3.695317,-1.950308,0.118938,9.022412,14.525790,-4.100343
1.760000,0.203680,-1.338844,1.428954,1.228212,0.909449,0.105507,-1.165203,-0.186111,-0.073238,-3.602226,-1.801899,0.076291,9.527000,15.079422,-4.322387
1.770000,0.215903,-1.329759,1.430005,1.216381,0.907500,0.104777,-1.200741,-0.203367,-0.072695,-3.504575,-1.648538,0.032112,9.997462,15.584737,-4.506934
1.780000,0.228007,-1.320694,1.431049,1.204200,0.905387,0.104051,-1.235280,-0.219066,-0.072601,-3.402396,-1.490372,-0.013720,10.432256,16.039918,-4.653049
1.790000,0.239986,-1.311652,1.432086,1.191679,0.903124,0.103324,-1.268775,-0.233160,-0.072973,-3.296054,-1.327912,-0.060817,10.829839,16.443152,-4.759799
1.800000,0.251839,-1.302632,1.433116,1.178828,0.900729,0.102590,-1.301188,-0.245611,-0.073821,-3.185928,-1.161688,-0.108782,11.188667,16.792624,-4.826251
1.810000,0.263562,-1.293637,1.434138,1.165659,0.898218,0.101846,-1.332479,-0.256380,-0.075156,-3.072087,-0.991898,-0.157751,11.498923,17.077740,-4.837671
1.820000,0.275151,-1.284668,1.435153,1.152183,0.895607,0.101086,-1.362620,-0.265441,-0.076975,-2.955717,-0.819929,-0.206016,11.768351,17.306540,-4.808614
1.830000,0.286604,-1.275726,1.436160,1.138411,0.892915,0.100305,-1.391585,-0.272772,-0.079275,-2.836858,-0.645957,-0.253791,11.996420,17.478283,-4.739835
1.840000,0.297919,-1.266810,1.437159,1.124355,0.890158,0.099499,-1.419351,-0.278355,-0.082048,-2.715928,-0.470556,-0.300683,12.182600,17.592229,-4.632090
1.850000,0.309091,-1.257923,1.438149,1.110028,0.887353,0.098662,-1.445898,-0.282180,-0.085284,-2.593348,-0.294307,-0.346306,12.326359,17.647640,-4.486135
1.860000,0.320118,-1.249063,1.439132,1.095441,0.884520,0.097792,-1.471210,-0.284236,-0.088974,-2.469197,-0.117420,-0.390788,12.418404,17.634151,-4.289909
1.870000,0.330999,-1.240232,1.440105,1.080607,0.881674,0.096882,-1.495280,-0.284530,-0.093093,-2.344730,0.058609,-0.432559,12.468041,17.561825,-4.058552
1.880000,0.341730,-1.231430,1.441069,1.065539,0.878835,0.095928,-1.518103,-0.283067,-0.097617,-2.219976,0.233622,-0.471850,12.475814,17.431100,-3.794391
1.890000,0.352309,-1.222655,1.442024,1.050249,0.876019,0.094928,-1.539680,-0.279863,-0.102521,-2.095351,0.407038,-0.508345,12.442265,17.242414,-3.499750
1.900000,0.362734,-1.213909,1.442968,1.034750,0.873243,0.093877,-1.560012,-0.274934,-0.107774,-1.971266,0.578279,-0.541751,12.367937,16.996207,-3.176954
1.910000,0.373003,-1.205190,1.443901,1.019053,0.870526,0.092772,-1.579104,-0.268302,-0.113348,-1.847786,0.747176,-0.572126,12.244784,16.682717,-2.820040
1.920000,0.383114,-1.196498,1.444823,1.003172,0.867883,0.091609,-1.596973,-0.260002,-0.119204,-1.726116,0.912204,-0.598447,12.082989,16.313831,-2.440636
1.930000,0.393066,-1.187832,1.445733,0.987118,0.865331,0.090387,-1.613633,-0.250071,-0.125304,-1.606250,1.073273,-0.620875,11.884148,15.891237,-2.042081
1.940000,0.402856,-1.179191,1.446630,0.970903,0.862887,0.089102,-1.629105,-0.238551,-0.131608,-1.488551,1.229855,-0.639236,11.649853,15.416623,-1.627716
1.950000,0.412483,-1.170574,1.447515,0.954540,0.860565,0.087754,-1.643412,-0.225490,-0.138075,-1.373366,1.381438,-0.653388,11.381701,14.891676,-1.200881
1.960000,0.421946,-1.161980,1.448385,0.938039,0.858382,0.086340,-1.656578,-0.210937,-0.144662,-1.260729,1.527911,-0.663279,11.073809,14.308381,-0.763495
1.970000,0.431244,-1.153406,1.449241,0.921412,0.856351,0.084861,-1.668637,-0.194952,-0.151326,-1.151655,1.667886,-0.668702,10.736163,13.679317,-0.320492
1.980000,0.440374,-1.144852,1.450082,0.904669,0.854487,0.083314,-1.679623,-0.177601,-0.158021,-1.046096,1.801354,-0.669682,10.371274,13.007358,0.124614
1.990000,0.449337,-1.136316,1.450907,0.887823,0.852803,0.081700,-1.689572,-0.158948,-0.164704,-0.944312,1.927900,-0.666215,9.981652,12.295382,0.568309
2.000000,0.458130,-1.127795,1.451716,0.870881,0.851312,0.080020,-1.698523,-0.139067,-0.171331,-0.846537,2.047138,-0.658332,9.569806,11.546263,1.007080
2.010000,0.466754,-1.119289,1.452508,0.853855,0.850026,0.078274,-1.706515,-0.118028,-0.177854,-0.752791,2.158992,-0.645876,9.133431,10.755777,1.431712
2.020000,0.475207,-1.110794,1.453281,0.836754,0.848955,0.076463,-1.713593,-0.095914,-0.184234,-0.663709,2.262469,-0.629481,8.680442,9.934770,1.845090
2.030000,0.483489,-1.102309,1.454037,0.819586,0.848111,0.074590,-1.719804,-0.072807,-0.190430,-0.579227,2.357598,-0.609021,8.213939,9.086986,2.244398
2.040000,0.491599,-1.093831,1.454773,0.802361,0.847502,0.072655,-1.725194,-0.048791,-0.196402,-0.499465,2.444132,-0.584649,7.737022,8.216171,2.626822
2.050000,0.499536,-1.085358,1.455489,0.785085,0.847138,0.070663,-1.729810,-0.023953,-0.202111,-0.424511,2.521857,-0.556550,7.252791,7.326070,2.989545
2.060000,0.507300,-1.076888,1.456186,0.767767,0.847026,0.068614,-1.733700,0.001617,-0.207516,-0.354414,2.590684,-0.524505,6.764116,6.418325,3.318932
2.070000,0.514891,-1.068417,1.456862,0.750413,0.847172,0.066513,-1.736914,0.027830,-0.212590,-0.289222,2.650279,-0.489768,6.274353,5.499041,3.624312
2.080000,0.522309,-1.059943,1.457516,0.733031,0.847584,0.064363,-1.739501,0.054592,-0.217302,-0.228920,2.700640,-0.452104,5.786632,4.572221,3.904194
2.090000,0.529552,-1.051464,1.458149,0.715625,0.848266,0.062168,-1.741509,0.081812,-0.221623,-0.173472,2.741712,-0.411774,5.304080,3.641866,4.157089
2.100000,0.536621,-1.042977,1.458759,0.698202,0.849221,0.059932,-1.742986,0.109395,-0.225529,-0.122811,2.773479,-0.369057,4.829824,2.711981,4.381504
2.110000,0.543516,-1.034479,1.459347,0.680767,0.850455,0.057659,-1.743983,0.137249,-0.228992,-0.077033,2.795805,-0.323758,4.371927,1.790637,4.563678
2.120000,0.550236,-1.025967,1.459912,0.663324,0.851967,0.055354,-1.744542,0.165281,-0.231999,-0.035546,2.809137,-0.277335,3.927978,0.877268,4.715893
2.130000,0.556782,-1.017439,1.460454,0.645878,0.853760,0.053021,-1.744708,0.193401,-0.234534,0.001581,2.813389,-0.229540,3.500501,-0.024621,4.838163
2.140000,0.563154,-1.008891,1.460973,0.628431,0.855835,0.050665,-1.744524,0.221519,-0.236586,0.034527,2.808694,-0.180672,3.092019,-0.911527,4.930499
2.150000,0.569351,-1.000321,1.461467,0.610988,0.858191,0.048291,-1.744031,0.249546,-0.238145,0.063493,2.795220,-0.131030,2.705056,-1.779945,4.992912
2.160000,0.575374,-0.991726,1.461938,0.593552,0.860825,0.045903,-1.743270,0.277391,-0.239201,0.088386,2.772833,-0.080525,2.350288,-2.617906,5.015616
2.170000,0.581222,-0.983104,1.462385,0.576124,0.863738,0.043508,-1.742275,0.304975,-0.239756,0.110220,2.742565,-0.030376,2.021088,-3.431409,5.009620
2.180000,0.586896,-0.974450,1.462809,0.558707,0.866924,0.041110,-1.741077,0.332216,-0.239809,0.128898,2.704295,0.019575,1.718981,-4.217984,4.976138
2.190000,0.592396,-0.965764,1.463208,0.541303,0.870380,0.038714,-1.739706,0.359035,-0.239366,0.144696,2.658304,0.069059,1.445494,-4.975166,4.916381
2.200000,0.597722,-0.957042,1.463583,0.523913,0.874103,0.036324,-1.738191,0.385357,-0.238431,0.157908,2.604898,0.117819,1.202152,-5.700485,4.831561
2.210000,0.602875,-0.948281,1.463934,0.506539,0.878086,0.033947,-1.736559,0.411105,-0.237010,0.168500,2.544026,0.165808,0.999180,-6.381805,4.717904
2.220000,0.607853,-0.939479,1.464262,0.489182,0.882323,0.031586,-1.734827,0.436215,-0.235119,0.177610,2.476949,0.212327,0.828339,-7.027512,4.582218
2.230000,0.612658,-0.930634,1.464566,0.471843,0.886808,0.029246,-1.733012,0.460623,-0.232769,0.185175,2.403598,0.257385,0.690088,-7.636323,4.426326
2.240000,0.617290,-0.921742,1.464847,0.454522,0.891533,0.026932,-1.731128,0.484268,-0.229976,0.191522,2.324350,0.300792,0.584888,-8.206955,4.252049
2.250000,0.621749,-0.912803,1.465105,0.437221,0.896490,0.024648,-1.729185,0.507092,-0.226759,0.196985,2.239591,0.342371,0.513198,-8.738122,4.061210
2.260000,0.626035,-0.903812,1.465340,0.419939,0.901672,0.022398,-1.727193,0.529039,-0.223135,0.201596,2.149373,0.381972,0.483143,-9.219699,3.855501
2.270000,0.630148,-0.894768,1.465553,0.402677,0.907068,0.020186,-1.725153,0.550064,-0.219127,0.206417,2.054938,0.419444,0.486580,-9.660329,3.636890
2.280000,0.634088,-0.885670,1.465744,0.385436,0.912670,0.018017,-1.723064,0.570123,-0.214754,0.211438,1.956303,0.454673,0.523031,-10.059811,3.407217
2.290000,0.637856,-0.876514,1.465913,0.368216,0.918467,0.015892,-1.720923,0.589177,-0.210041,0.216986,1.853880,0.487558,0.592019,-10.417945,3.168319
2.300000,0.641453,-0.867300,1.466062,0.351018,0.924450,0.013817,-1.718722,0.607190,-0.205011,0.223385,1.748083,0.518015,0.693064,-10.734529,2.922036
2.310000,0.644877,-0.858025,1.466190,0.333842,0.930608,0.011793,-1.716454,0.624126,-0.199690,0.230715,1.639046,0.545852,0.831699,-11.002237,2.673425
2.320000,0.648129,-0.848687,1.466298,0.316689,0.936929,0.009824,-1.714102,0.639962,-0.194102,0.239852,1.527857,0.571326,1.000700,-11.228868,2.420711
2.330000,0.651211,-0.839286,1.466386,0.299560,0.943403,0.007912,-1.711651,0.654676,-0.188272,0.250826,1.414604,0.594258,1.198852,-11.415093,2.165339
2.340000,0.654121,-0.829819,1.466456,0.282456,0.950019,0.006059,-1.709079,0.668249,-0.182226,0.263922,1.299687,0.614629,1.424943,-11.561586,1.908751
2.350000,0.656860,-0.820285,1.466508,0.265379,0.956764,0.004268,-1.706364,0.680666,-0.175988,0.279414,1.183502,0.632434,1.677757,-11.669018,1.652394
2.360000,0.659428,-0.810683,1.466542,0.248330,0.963628,0.002540,-1.703483,0.691915,-0.169588,0.297405,1.066291,0.647492,1.960038,-11.734427,1.402520
2.370000,0.661827,-0.801012,1.466559,0.231310,0.970599,0.000877,-1.700406,0.701990,-0.163047,0.318517,0.948776,0.660278,2.266131,-11.762565,1.155175
2.380000,0.664055,-0.791271,1.466560,0.214322,0.977664,-0.000720,-1.697103,0.710890,-0.156390,0.342802,0.831160,0.670606,2.594336,-11.754549,0.911214
2.390000,0.666113,-0.781458,1.466545,0.197369,0.984813,-0.002251,-1.693539,0.718614,-0.149643,0.370472,0.713801,0.678516,2.942955,-11.711497,0.671493
2.400000,0.668002,-0.771574,1.466515,0.180453,0.992032,-0.003713,-1.689681,0.725168,-0.142828,0.401723,0.597044,0.684053,3.310288,-11.634524,0.436867
2.410000,0.669722,-0.761617,1.466471,0.163576,0.999312,-0.005107,-1.685493,0.730554,-0.135971,0.436605,0.480879,0.687156,3.697908,-11.516124,0.211153
2.420000,0.671274,-0.751588,1.466413,0.146744,1.006640,-0.006432,-1.680936,0.734790,-0.129092,0.475585,0.366438,0.688166,4.100445,-11.367094,-0.008118
2.430000,0.672657,-0.741485,1.466342,0.129959,1.014004,-0.007689,-1.675968,0.737889,-0.122214,0.518657,0.253632,0.687017,4.515800,-11.189610,-0.220454
2.440000,0.673873,-0.731308,1.466259,0.113226,1.021394,-0.008877,-1.670549,0.739869,-0.115359,0.565937,0.142733,0.683781,4.941873,-10.985843,-0.425363
2.450000,0.674922,-0.721057,1.466165,0.096550,1.028798,-0.009996,-1.664635,0.740751,-0.108546,0.617523,0.033995,0.678536,5.376566,-10.757968,-0.622351
2.460000,0.675804,-0.710732,1.466060,0.079935,1.036205,-0.011048,-1.658183,0.740560,-0.101797,0.673517,-0.072009,0.671170,5.817099,-10.516854,-0.806063
2.470000,0.676521,-0.700333,1.465944,0.063388,1.043605,-0.012032,-1.651150,0.739319,-0.095128,0.733910,-0.175884,0.662225,6.262136,-10.254914,-0.981466
2.480000,0.677072,-0.689860,1.465819,0.046914,1.050988,-0.012951,-1.643490,0.737052,-0.088558,0.798768,-0.277041,0.651568,6.709662,-9.973256,-1.148661
2.490000,0.677460,-0.679313,1.465685,0.030520,1.058343,-0.013804,-1.635160,0.733788,-0.082102,0.868105,-0.375287,0.639279,7.157661,-9.672990,-1.307753
2.500000,0.677683,-0.668693,1.465543,0.014213,1.065661,-0.014593,-1.626113,0.729556,-0.075777,0.941916,-0.470443,0.625439,7.604118,-9.355224,-1.458843
2.510000,0.677744,-0.658000,1.465394,-0.001999,1.072931,-0.015320,-1.616307,0.724388,-0.069598,1.020174,-0.562512,0.610133,8.047064,-9.016655,-1.602137
2.520000,0.677644,-0.647234,1.465237,-0.018110,1.080145,-0.015986,-1.605695,0.718318,-0.063579,1.102837,-0.650923,0.593427,8.484430,-8.663345,-1.737624
2.530000,0.677382,-0.636397,1.465074,-0.034110,1.087295,-0.016592,-1.594235,0.711381,-0.057734,1.189837,-0.735735,0.575406,8.914194,-8.296941,-1.865393
2.540000,0.676962,-0.625489,1.464906,-0.049992,1.094370,-0.017141,-1.581884,0.703615,-0.052075,1.281088,-0.816824,0.556145,9.334334,-7.919094,-1.985535
2.550000,0.676383,-0.614510,1.464732,-0.065745,1.101364,-0.017634,-1.568600,0.695058,-0.046615,1.376485,-0.894084,0.535720,9.742830,-7.531451,-2.098141
2.560000,0.675647,-0.603462,1.464553,-0.081360,1.108269,-0.018074,-1.554341,0.685745,-0.041364,1.475950,-0.967565,0.514257,10.136392,-7.132163,-2.204579
2.570000,0.674756,-0.592345,1.464370,-0.096828,1.115077,-0.018462,-1.539068,0.675720,-0.036333,1.579217,-1.036864,0.491711,10.514422,-6.726806,-2.303505
2.580000,0.673711,-0.581161,1.464184,-0.112138,1.121781,-0.018801,-1.522744,0.665022,-0.031533,1.686180,-1.102087,0.468213,10.875051,-6.317458,-2.394852
2.590000,0.672514,-0.569910,1.463994,-0.127280,1.128375,-0.019094,-1.505333,0.653692,-0.026972,1.796654,-1.163206,0.443839,11.216415,-5.906198,-2.478555
2.600000,0.671166,-0.558593,1.463802,-0.142241,1.134853,-0.019342,-1.486800,0.641771,-0.022659,1.910438,-1.220212,0.418667,11.536646,-5.495101,-2.554547
2.610000,0.669670,-0.547213,1.463608,-0.157012,1.141209,-0.019548,-1.467111,0.629306,-0.018602,2.027503,-1.272646,0.392707,11.829020,-5.098126,-2.621071
2.620000,0.668027,-0.535770,1.463411,-0.171580,1.147437,-0.019715,-1.446240,0.616331,-0.014807,2.147154,-1.321654,0.366196,12.097124,-4.704015,-2.679959
2.630000,0.666239,-0.524265,1.463214,-0.185933,1.153534,-0.019845,-1.424160,0.602886,-0.011280,2.269360,-1.366738,0.339133,12.339685,-4.313393,-2.731351
2.640000,0.664309,-0.512699,1.463015,-0.200059,1.159494,-0.019941,-1.400846,0.589010,-0.008026,2.393859,-1.407935,0.311593,12.555433,-3.926882,-2.775389
2.650000,0.662239,-0.501075,1.462815,-0.213945,1.165313,-0.020006,-1.376276,0.574740,-0.005049,2.520375,-1.445291,0.283649,12.743095,-3.545105,-2.812214
2.660000,0.660031,-0.489394,1.462615,-0.227580,1.170987,-0.020043,-1.350430,0.560115,-0.002353,2.648786,-1.478975,0.255421,12.897270,-3.165653,-2.843186
2.670000,0.657688,-0.477656,1.462414,-0.240950,1.176514,-0.020054,-1.323296,0.545173,0.000058,2.778404,-1.508761,0.226864,13.021321,-2.792552,-2.867077
2.680000,0.655213,-0.465864,1.462214,-0.254042,1.181890,-0.020043,-1.294859,0.529952,0.002183,2.909110,-1.534851,0.198103,13.114484,-2.426798,-2.883879
2.690000,0.652608,-0.454019,1.462013,-0.266843,1.187112,-0.020012,-1.265111,0.514488,0.004020,3.040589,-1.557324,0.169210,13.175993,-2.069385,-2.893583
2.700000,0.649877,-0.442122,1.461813,-0.279339,1.192179,-0.019963,-1.234045,0.498817,0.005567,3.172521,-1.576270,0.140255,13.205081,-1.721308,-2.896181
2.710000,0.647022,-0.430176,1.461614,-0.291519,1.197088,-0.019901,-1.201657,0.482976,0.006825,3.304849,-1.591622,0.111267,13.194184,-1.387677,-2.890575
2.720000,0.644048,-0.418181,1.461415,-0.303368,1.201838,-0.019828,-1.167949,0.466996,0.007793,3.436598,-1.603875,0.082418,13.150168,-1.064867,-2.877979
2.730000,0.640956,-0.406140,1.461218,-0.314874,1.206427,-0.019746,-1.132927,0.450909,0.008473,3.567742,-1.612957,0.053730,13.073099,-0.753368,-2.858520
2.740000,0.637751,-0.394053,1.461020,-0.326022,1.210856,-0.019659,-1.096598,0.434747,0.008868,3.697950,-1.618982,0.025270,12.963043,-0.453670,-2.832322
2.750000,0.634437,-0.381923,1.460824,-0.336801,1.215122,-0.019570,-1.058972,0.418539,0.008980,3.826893,-1.622071,-0.002895,12.820068,-0.166262,-2.799511
2.760000,0.631016,-0.369751,1.460629,-0.347198,1.219226,-0.019481,-1.020062,0.402316,0.008811,3.954522,-1.622248,-0.030758,12.637156,0.105799,-2.758718
2.770000,0.627494,-0.357539,1.460435,-0.357198,1.223169,-0.019395,-0.979888,0.386103,0.008366,4.079846,-1.619884,-0.058115,12.422325,0.364901,-2.711746
2.780000,0.623874,-0.345288,1.460241,-0.366791,1.226949,-0.019314,-0.938473,0.369927,0.007650,4.202866,-1.614994,-0.084973,12.176509,0.610870,-2.658901
2.790000,0.620160,-0.333001,1.460048,-0.375964,1.230567,-0.019242,-0.895840,0.353811,0.006669,4.323276,-1.607711,-0.111274,11.900643,0.843528,-2.600493
2.800000,0.616356,-0.320677,1.459856,-0.384704,1.234025,-0.019182,-0.852017,0.337780,0.005427,4.440781,-1.598169,-0.136965,11.595659,1.062700,-2.536829
2.810000,0.612467,-0.308321,1.459665,-0.393000,1.237323,-0.019135,-0.807033,0.321856,0.003931,4.555305,-1.586424,-0.162045,11.257186,1.266213,-2.466932
2.820000,0.608498,-0.295932,1.459474,-0.400841,1.240463,-0.019104,-0.760923,0.306058,0.002188,4.666073,-1.572801,-0.186346,10.892114,1.456131,-2.392553
2.830000,0.604452,-0.283512,1.459283,-0.408215,1.243445,-0.019092,-0.713724,0.290406,0.000207,4.773064,-1.557346,-0.209883,10.502026,1.632523,-2.314157
2.840000,0.600335,-0.271063,1.459092,-0.415112,1.246271,-0.019101,-0.665475,0.274917,-0.002007,4.876036,-1.540195,-0.232618,10.088507,1.795455,-2.232210
2.850000,0.596151,-0.258587,1.458900,-0.421521,1.248944,-0.019133,-0.616217,0.259607,-0.004443,4.974762,-1.521482,-0.254517,9.653140,1.944996,-2.147177
2.860000,0.591906,-0.246085,1.458709,-0.427433,1.251464,-0.019190,-0.565994,0.244493,-0.007094,5.069111,-1.501287,-0.275566,9.195491,2.079902,-2.059185
2.870000,0.587604,-0.233558,1.458517,-0.432838,1.253834,-0.019275,-0.514851,0.229586,-0.009951,5.158700,-1.479869,-0.295709,8.719409,2.201713,-1.969079
2.880000,0.583251,-0.221009,1.458323,-0.437727,1.256057,-0.019390,-0.462836,0.214899,-0.013005,5.243444,-1.457296,-0.314942,8.226725,2.310659,-1.877366
2.890000,0.578851,-0.208437,1.458129,-0.442092,1.258133,-0.019536,-0.409998,0.200443,-0.016247,5.323185,-1.433698,-0.333252,7.719268,2.406968,-1.784553
2.900000,0.574411,-0.195846,1.457932,-0.445925,1.260066,-0.019715,-0.356389,0.186228,-0.019667,5.397786,-1.409198,-0.350631,7.198870,2.490870,-1.691147
2.910000,0.569935,-0.183237,1.457734,-0.449218,1.261858,-0.019930,-0.302061,0.172262,-0.023256,5.467080,-1.383889,-0.367046,6.668505,2.561790,-1.598390
2.920000,0.565428,-0.170610,1.457534,-0.451964,1.263512,-0.020181,-0.247065,0.158553,-0.027005,5.531074,-1.357966,-0.382567,6.128719,2.620858,-1.505963
2.930000,0.560897,-0.157967,1.457331,-0.454157,1.265030,-0.020470,-0.191457,0.145105,-0.030905,5.589629,-1.331510,-0.397168,5.581205,2.668402,-1.414283
2.940000,0.556347,-0.145310,1.457124,-0.455791,1.266415,-0.020800,-0.135291,0.131924,-0.034946,5.642678,-1.304635,-0.410857,5.027653,2.704750,-1.323767
2.950000,0.551783,-0.132639,1.456914,-0.456861,1.267670,-0.021170,-0.078622,0.119013,-0.039119,5.690168,-1.277451,-0.423648,4.469753,2.730228,-1.234832
2.960000,0.547212,-0.119957,1.456701,-0.457362,1.268797,-0.021582,-0.021508,0.106376,-0.043415,5.731935,-1.250039,-0.435500,3.912447,2.744499,-1.149407
2.970000,0.542638,-0.107263,1.456483,-0.457290,1.269798,-0.022039,0.035998,0.094013,-0.047826,5.768267,-1.222566,-0.446576,3.353777,2.748636,-1.066210
2.980000,0.538068,-0.094561,1.456260,-0.456641,1.270678,-0.022539,0.093839,0.081924,-0.052344,5.799010,-1.195099,-0.456833,2.795035,2.743048,-0.985475
2.990000,0.533507,-0.081850,1.456032,-0.455412,1.271438,-0.023086,0.151959,0.070110,-0.056960,5.824172,-1.167736,-0.466295,2.237516,2.728144,-0.907433
3.000000,0.528962,-0.069133,1.455798,-0.453601,1.272081,-0.023679,0.210304,0.058569,-0.061667,5.843769,-1.140566,-0.474991,1.682511,2.704332,-0.832315
3.010000,0.524437,-0.056409,1.455558,-0.451205,1.272610,-0.024319,0.268815,0.047298,-0.066457,5.857665,-1.113656,-0.482878,1.135598,2.671478,-0.762222
3.020000,0.519939,-0.043681,1.455311,-0.448224,1.273028,-0.025008,0.327439,0.036295,-0.071322,5.866305,-1.087139,-0.490163,0.593260,2.630600,-0.695289
3.030000,0.515475,-0.030949,1.455058,-0.444656,1.273337,-0.025746,0.386123,0.025554,-0.076258,5.869548,-1.061069,-0.496794,0.056267,2.582174,-0.631517
3.040000,0.511048,-0.018214,1.454796,-0.440502,1.273540,-0.026534,0.444812,0.015072,-0.081256,5.867451,-1.035519,-0.502804,-0.474615,2.526673,-0.570910
3.050000,0.506667,-0.005478,1.454527,-0.435760,1.273639,-0.027371,0.503454,0.004842,-0.086312,5.860079,-1.010557,-0.508223,-0.998617,2.464575,-0.513470
3.060000,0.502335,0.007258,1.454249,-0.430433,1.273637,-0.028260,0.561994,-0.005142,-0.091418,5.847329,-0.986236,-0.513010,-1.510542,2.396040,-0.461052
3.070000,0.498060,0.019994,1.453961,-0.424521,1.273537,-0.029200,0.620384,-0.014885,-0.096570,5.829696,-0.962641,-0.517371,-2.014593,2.321895,-0.411581
3.080000,0.493847,0.032728,1.453664,-0.418026,1.273340,-0.030192,0.678572,-0.024397,-0.101764,5.807064,-0.939815,-0.521251,-2.510544,2.242654,-0.364833
3.090000,0.489701,0.045460,1.453357,-0.410950,1.273050,-0.031235,0.736509,-0.033684,-0.106994,5.779513,-0.917804,-0.524676,-2.998169,2.158830,-0.320584
3.100000,0.485630,0.058189,1.453040,-0.403297,1.272667,-0.032332,0.794146,-0.042756,-0.112256,5.747129,-0.896652,-0.527670,-3.477241,2.070937,-0.278610
3.110000,0.481637,0.070914,1.452711,-0.395068,1.272195,-0.033481,0.851434,-0.051620,-0.117545,5.709849,-0.876389,-0.530192,-3.943791,1.979295,-0.240277
3.120000,0.477730,0.083633,1.452370,-0.386269,1.271636,-0.034683,0.908327,-0.060287,-0.122858,5.668115,-0.857067,-0.532410,-4.401796,1.884635,-0.203578
3.130000,0.473914,0.096346,1.452017,-0.376903,1.270990,-0.035938,0.964781,-0.068765,-0.128192,5.621841,-0.838705,-0.534268,-4.851487,1.787494,-0.168093
3.140000,0.470194,0.109052,1.451651,-0.366975,1.270261,-0.037246,1.020749,-0.077064,-0.133543,5.571112,-0.821324,-0.535775,-5.293096,1.688408,-0.133405
3.150000,0.466576,0.121751,1.451272,-0.356490,1.269449,-0.038609,1.076189,-0.085195,-0.138906,5.516006,-0.804941,-0.536937,-5.726857,1.587915,-0.099096
3.160000,0.463066,0.134441,1.450879,-0.345453,1.268558,-0.040025,1.131054,-0.093166,-0.144280,5.456500,-0.789573,-0.537709,-6.150477,1.486663,-0.065952
3.170000,0.459669,0.147122,1.450471,-0.333871,1.267587,-0.041494,1.185305,-0.100990,-0.149660,5.392907,-0.775214,-0.538200,-6.567022,1.385064,-0.032202
3.180000,0.456390,0.159792,1.450048,-0.321750,1.266538,-0.043018,1.238898,-0.108674,-0.155043,5.325181,-0.761871,-0.538349,-6.977033,1.283644,0.002721
3.190000,0.453236,0.172452,1.449610,-0.309095,1.265414,-0.044595,1.291795,-0.116230,-0.160425,5.253386,-0.749539,-0.538140,-7.381053,1.182924,0.039382
3.200000,0.450210,0.185100,1.449156,-0.295916,1.264214,-0.046226,1.343953,-0.123668,-0.165804,5.177578,-0.738208,-0.537554,-7.779623,1.083430,0.078347
3.210000,0.447319,0.197736,1.448686,-0.282219,1.262941,-0.047911,1.395333,-0.130998,-0.171175,5.097776,-0.727882,-0.536534,-8.172414,0.986134,0.119435
3.220000,0.444567,0.210359,1.448198,-0.268012,1.261594,-0.049650,1.445895,-0.138229,-0.176533,5.014106,-0.718498,-0.535120,-8.560944,0.891055,0.164051
3.230000,0.441960,0.222968,1.447693,-0.253304,1.260176,-0.051442,1.495602,-0.145371,-0.181876,4.926569,-0.710052,-0.533239,-8.945862,0.798663,0.212854
3.240000,0.439503,0.235562,1.447169,-0.238103,1.258687,-0.053287,1.544414,-0.152433,-0.187196,4.835198,-0.702514,-0.530846,-9.327815,0.709425,0.266501
3.250000,0.437200,0.248141,1.446627,-0.222419,1.257128,-0.055186,1.592293,-0.159424,-0.192491,4.740020,-0.695851,-0.527891,-9.707451,0.623811,0.325649
3.260000,0.435056,0.260705,1.446065,-0.206260,1.255499,-0.057137,1.639202,-0.166353,-0.197752,4.641098,-0.690055,-0.524306,-10.086505,0.543063,0.390790
3.270000,0.433076,0.273251,1.445484,-0.189638,1.253801,-0.059141,1.685102,-0.173228,-0.202974,4.538343,-0.685010,-0.520044,-10.464406,0.466780,0.462768
3.280000,0.431265,0.285780,1.444882,-0.172562,1.252035,-0.061196,1.729956,-0.180056,-0.208150,4.431812,-0.680704,-0.515026,-10.841668,0.395338,0.542263
3.290000,0.429627,0.298292,1.444260,-0.155043,1.250200,-0.063303,1.773726,-0.186844,-0.213272,4.321510,-0.677086,-0.509172,-11.218806,0.329108,0.629953
3.300000,0.428166,0.310784,1.443616,-0.137091,1.248298,-0.065461,1.816374,-0.193600,-0.218331,4.207434,-0.674103,-0.502397,-11.596334,0.268466,0.726515
3.310000,0.426886,0.323257,1.442950,-0.118719,1.246328,-0.067670,1.857864,-0.200329,-0.223317,4.089702,-0.671745,-0.494637,-11.977848,0.215007,0.833310
3.320000,0.425793,0.335711,1.442262,-0.099938,1.244291,-0.069928,1.898155,-0.207036,-0.228220,3.968011,-0.669837,-0.485728,-12.360405,0.167733,0.950252
3.330000,0.424889,0.348143,1.441552,-0.080760,1.242187,-0.072234,1.937211,-0.213727,-0.233028,3.842490,-0.668369,-0.475596,-12.744144,0.126869,1.077934
3.340000,0.424179,0.360554,1.440817,-0.061198,1.240017,-0.074588,1.974992,-0.220405,-0.237727,3.713124,-0.667277,-0.464131,-13.129202,0.092639,1.216952
3.350000,0.423666,0.372943,1.440060,-0.041265,1.237779,-0.076988,2.011461,-0.227074,-0.242305,3.579901,-0.666493,-0.451217,-13.515717,0.065266,1.367901
3.360000,0.423355,0.385309,1.439278,-0.020973,1.235475,-0.079433,2.046579,-0.233736,-0.246747,3.442998,-0.666012,-0.436810,-13.908713,0.046589,1.533364
3.370000,0.423248,0.397652,1.438471,-0.000338,1.233105,-0.081922,2.080307,-0.240394,-0.251036,3.301941,-0.665610,-0.420596,-14.302844,0.035021,1.711703
3.380000,0.423349,0.409971,1.437639,0.020628,1.230667,-0.084453,2.112605,-0.247049,-0.255153,3.156939,-0.665288,-0.402532,-14.697649,0.030589,1.903271
3.390000,0.423661,0.422266,1.436782,0.041910,1.228164,-0.087025,2.143433,-0.253700,-0.259080,3.007987,-0.664974,-0.382485,-15.092668,0.033319,2.108419
3.400000,0.424188,0.434534,1.435898,0.063492,1.225593,-0.089634,2.172752,-0.260348,-0.262796,2.855086,-0.664597,-0.360317,-15.487440,0.043239,2.327498
3.410000,0.424932,0.446777,1.434989,0.085359,1.222957,-0.092280,2.200524,-0.266993,-0.266280,2.698488,-0.664161,-0.336042,-15.887757,0.062283,2.564776
3.420000,0.425896,0.458993,1.434053,0.107497,1.220254,-0.094959,2.226708,-0.273631,-0.269508,2.537617,-0.663414,-0.309149,-16.286141,0.088337,2.816209
3.430000,0.427083,0.471182,1.433090,0.129888,1.217484,-0.097669,2.251263,-0.280260,-0.272455,2.372776,-0.662371,-0.279672,-16.681366,0.121193,3.081668
3.440000,0.428495,0.483343,1.432099,0.152517,1.214648,-0.100407,2.274151,-0.286877,-0.275093,2.204004,-0.660968,-0.247470,-17.072205,0.160644,3.361025
3.450000,0.430134,0.495475,1.431081,0.175365,1.211747,-0.103170,2.295331,-0.293478,-0.277395,2.031351,-0.659137,-0.212405,-17.457433,0.206483,3.654152
3.460000,0.432003,0.507577,1.430036,0.198417,1.208779,-0.105954,2.314768,-0.300059,-0.279334,1.855153,-0.656901,-0.174598,-17.842759,0.260622,3.967422
3.470000,0.434103,0.519650,1.428962,0.221655,1.205746,-0.108755,2.332421,-0.306614,-0.280876,1.674835,-0.654000,-0.133305,-18.219173,0.320477,4.293410
3.480000,0.436436,0.531692,1.427861,0.245060,1.202647,-0.111570,2.348252,-0.313137,-0.281989,1.490806,-0.650474,-0.088691,-18.584598,0.385579,4.631191
3.490000,0.439005,0.543703,1.426731,0.268614,1.199483,-0.114393,2.362225,-0.319621,-0.282638,1.303186,-0.646273,-0.040644,-18.936958,0.455464,4.979841
3.500000,0.441809,0.555682,1.425573,0.292298,1.196255,-0.117221,2.374304,-0.326060,-0.282790,1.112117,-0.641351,0.010939,-19.274179,0.529663,5.338436
3.510000,0.444851,0.567628,1.424386,0.316093,1.192962,-0.120047,2.384459,-0.332446,-0.282411,0.918028,-0.635752,0.065777,-19.600958,0.609865,5.715581
3.520000,0.448131,0.579541,1.423172,0.339980,1.189606,-0.122867,2.392654,-0.338772,-0.281461,0.720468,-0.629239,0.124848,-19.907618,0.693186,6.099657
3.530000,0.451651,0.591420,1.421929,0.363940,1.186187,-0.125674,2.398859,-0.345028,-0.279902,0.519953,-0.621880,0.187786,-20.191251,0.778896,6.488570
3.540000,0.455410,0.603264,1.420658,0.387951,1.182706,-0.128463,2.403044,-0.351207,-0.277693,0.316729,-0.613656,0.254629,-20.448955,0.866264,6.880231
3.550000,0.459410,0.615074,1.419360,0.411994,1.179163,-0.131226,2.405185,-0.357299,-0.274796,0.111070,-0.604552,0.325393,-20.677823,0.954562,7.272548
3.560000,0.463650,0.626847,1.418034,0.436048,1.175560,-0.133956,2.405260,-0.363295,-0.271177,-0.096642,-0.594602,0.399581,-20.876961,1.044022,7.675910
3.570000,0.468131,0.638585,1.416681,0.460092,1.171897,-0.136647,2.403246,-0.369188,-0.266791,-0.306263,-0.583717,0.478337,-21.041208,1.132833,8.074217
3.580000,0.472852,0.650285,1.415301,0.484106,1.168177,-0.139289,2.399129,-0.374967,-0.261597,-0.517339,-0.571950,0.561036,-21.167412,1.220146,8.463851
3.590000,0.477813,0.661948,1.413895,0.508067,1.164398,-0.141876,2.392896,-0.380624,-0.255557,-0.729474,-0.559322,0.647573,-21.252421,1.305112,8.841192
3.600000,0.483013,0.673573,1.412464,0.531956,1.160565,-0.144398,2.384538,-0.386150,-0.248633,-0.942240,-0.545859,0.737807,-21.293084,1.386884,9.202622
3.610000,0.488452,0.685159,1.411008,0.555751,1.156676,-0.146845,2.374056,-0.391540,-0.240794,-1.154655,-0.531771,0.831159,-21.299455,1.469006,9.554672
3.620000,0.494128,0.696706,1.409527,0.579430,1.152734,-0.149210,2.361445,-0.396783,-0.231999,-1.367465,-0.516693,0.928366,-21.253561,1.545700,9.882328
3.630000,0.500040,0.708214,1.408024,0.602973,1.148741,-0.151482,2.346710,-0.401872,-0.222216,-1.579536,-0.500880,1.028708,-21.150634,1.615578,10.180730
3.640000,0.506186,0.719681,1.406498,0.626357,1.144697,-0.153651,2.329859,-0.406799,-0.211415,-1.790272,-0.484409,1.131867,-20.985905,1.677255,10.445014
3.650000,0.512566,0.731107,1.404951,0.649563,1.140605,-0.155707,2.310911,-0.411558,-0.199571,-1.999032,-0.467367,1.237478,-20.754607,1.729344,10.670318
3.660000,0.519177,0.742493,1.403384,0.672569,1.136467,-0.157639,2.289866,-0.416140,-0.186657,-2.207109,-0.449412,1.345326,-20.401897,1.759197,10.846748
3.670000,0.526017,0.753837,1.401799,0.695354,1.132283,-0.159437,2.266781,-0.420545,-0.172659,-2.409072,-0.431717,1.454477,-19.979213,1.778069,10.975090
3.680000,0.533083,0.765138,1.400196,0.717898,1.128056,-0.161089,2.241700,-0.424773,-0.157564,-2.606465,-0.413888,1.564654,-19.487918,1.785953,11.051098
3.690000,0.540374,0.776397,1.398577,0.740182,1.123788,-0.162584,2.214670,-0.428823,-0.141364,-2.798606,-0.396035,1.675311,-18.929376,1.782841,11.070526
3.700000,0.547886,0.787614,1.396945,0.762185,1.119480,-0.163912,2.185747,-0.432694,-0.124058,-2.984832,-0.378268,1.785862,-18.304951,1.768726,11.029127
3.710000,0.555617,0.798787,1.395300,0.783891,1.115135,-0.165062,2.154979,-0.436387,-0.105636,-3.165912,-0.360473,1.896886,-17.580091,1.737944,10.892114
3.720000,0.563563,0.809916,1.393644,0.805280,1.110753,-0.166022,2.122454,-0.439905,-0.086126,-3.337842,-0.343290,2.004849,-16.796471,1.696838,10.689523
3.730000,0.571721,0.821002,1.391980,0.826334,1.106337,-0.166781,2.088250,-0.443254,-0.065547,-3.501665,-0.326568,2.110456,-15.959854,1.646092,10.420847
3.740000,0.580088,0.832043,1.390309,0.847039,1.101889,-0.167329,2.052450,-0.446438,-0.043927,-3.656881,-0.310398,2.213044,-15.076001,1.586393,10.085579
3.750000,0.588661,0.843040,1.388634,0.867378,1.097409,-0.167656,2.015142,-0.449464,-0.021299,-3.803047,-0.294868,2.311944,-14.150672,1.518425,9.683215
3.760000,0.597435,0.853991,1.386957,0.887337,1.092900,-0.167752,1.976418,-0.452338,0.002310,-3.939946,-0.280038,2.407619,-13.185328,1.442431,9.184550
3.770000,0.606406,0.864897,1.385280,0.906902,1.088363,-0.167607,1.936376,-0.455067,0.026836,-4.066847,-0.266022,2.496701,-12.190558,1.359594,8.621290
3.780000,0.615571,0.875758,1.383606,0.926061,1.083799,-0.167213,1.895115,-0.457661,0.052224,-4.183680,-0.252866,2.579839,-11.172649,1.270654,7.996440
3.790000,0.624926,0.886573,1.381937,0.944801,1.079210,-0.166560,1.852737,-0.460128,0.078411,-4.290244,-0.240627,2.656434,-10.137890,1.176349,7.313011
3.800000,0.634466,0.897342,1.380275,0.963112,1.074597,-0.165642,1.809345,-0.462477,0.105329,-4.386403,-0.229355,2.725914,-9.092568,1.077420,6.574007
3.810000,0.644187,0.908065,1.378625,0.980985,1.069961,-0.164451,1.765042,-0.464716,0.132909,-4.472230,-0.218922,2.788260,-8.039207,0.970321,5.769276
3.820000,0.654084,0.918742,1.376987,0.998410,1.065303,-0.162982,1.719935,-0.466859,0.161066,-4.547363,-0.209766,2.841728,-6.988320,0.860601,4.916598
3.830000,0.664153,0.929371,1.375366,1.015381,1.060624,-0.161229,1.674130,-0.468915,0.189715,-4.612027,-0.201714,2.886448,-5.946656,0.749525,4.020594
3.840000,0.674390,0.939954,1.373764,1.031891,1.055925,-0.159186,1.627729,-0.470897,0.218765,-4.666349,-0.194775,2.922010,-4.920964,0.638358,3.085881
3.850000,0.684790,0.950490,1.372183,1.047934,1.051206,-0.156852,1.580836,-0.472815,0.248123,-4.710522,-0.188943,2.948052,-3.917991,0.528362,2.117079
3.860000,0.695347,0.960978,1.370628,1.063506,1.046469,-0.154223,1.533568,-0.474682,0.277697,-4.743341,-0.184468,2.964586,-2.981519,0.427581,1.110421
3.870000,0.706058,0.971419,1.369100,1.078604,1.041713,-0.151298,1.486000,-0.476507,0.307381,-4.768605,-0.180685,2.970555,-2.076730,0.329672,0.079940
3.880000,0.716918,0.981812,1.367603,1.093225,1.036939,-0.148076,1.438225,-0.478299,0.337073,-4.784989,-0.177864,2.966124,-1.205839,0.235067,-0.968718
3.890000,0.727921,0.992158,1.366139,1.107368,1.032147,-0.144557,1.390329,-0.480068,0.366668,-4.792842,-0.175971,2.951139,-0.371061,0.144203,-2.029907
3.900000,0.739064,1.002455,1.364712,1.121032,1.027337,-0.140743,1.342395,-0.481822,0.396060,-4.792538,-0.174966,2.925503,0.425391,0.057513,-3.097981
3.910000,0.750340,1.012704,1.363325,1.134216,1.022510,-0.136637,1.294511,-0.483571,0.425142,-4.783800,-0.174875,2.889144,1.164377,-0.022817,-4.166510
3.920000,0.761746,1.022905,1.361981,1.146922,1.017666,-0.132242,1.246743,-0.485322,0.453808,-4.768630,-0.175484,2.842152,1.862680,-0.098319,-5.230726
3.930000,0.773277,1.033058,1.360681,1.159151,1.012804,-0.127562,1.199161,-0.487083,0.481950,-4.746682,-0.176824,2.784563,2.520157,-0.168772,-6.285081
3.940000,0.784928,1.043161,1.359430,1.170906,1.007924,-0.122605,1.151831,-0.488860,0.509464,-4.718364,-0.178842,2.716502,3.136667,-0.233956,-7.324024
3.950000,0.796694,1.053216,1.358230,1.182189,1.003027,-0.117375,1.104814,-0.490662,0.536246,-4.684086,-0.181485,2.638152,3.712068,-0.293651,-8.342004
3.960000,0.808570,1.063222,1.357084,1.193004,0.998111,-0.111882,1.058174,-0.492493,0.562190,-4.643714,-0.184779,2.549425,4.232423,-0.345549,-9.325256
3.970000,0.820552,1.073178,1.355993,1.203354,0.993177,-0.106135,1.011956,-0.494359,0.587202,-4.598954,-0.188470,2.451384,4.713074,-0.391775,-10.277451
3.980000,0.832636,1.083085,1.354962,1.213244,0.988224,-0.100142,0.966210,-0.496264,0.611187,-4.549580,-0.192596,2.343995,5.155567,-0.432362,-11.194045
3.990000,0.844816,1.092943,1.353991,1.222680,0.983251,-0.093915,0.920979,-0.498212,0.634052,-4.495965,-0.197099,2.227636,5.561451,-0.467347,-12.070493
4.000000,0.857088,1.102750,1.353084,1.231666,0.978259,-0.087465,0.876304,-0.500207,0.655711,-4.438467,-0.201924,2.102734,5.932272,-0.496765,-12.902253
4.010000,0.869447,1.112508,1.352243,1.240208,0.973247,-0.080805,0.832223,-0.502252,0.676074,-4.377229,-0.207069,1.969228,6.264481,-0.519312,-13.671446
4.020000,0.881890,1.122215,1.351469,1.248312,0.968214,-0.073948,0.788770,-0.504349,0.695071,-4.313055,-0.212352,1.828883,6.565346,-0.536527,-14.388494
4.030000,0.894412,1.131872,1.350764,1.255985,0.963160,-0.066908,0.745972,-0.506499,0.712629,-4.246019,-0.217782,1.681641,6.837037,-0.548609,-15.050484
4.040000,0.907009,1.141478,1.350131,1.263234,0.958084,-0.059700,0.703858,-0.508705,0.728682,-4.176404,-0.223308,1.528067,7.081727,-0.555759,-15.654506
4.050000,0.919675,1.151034,1.349571,1.270065,0.952986,-0.052340,0.662452,-0.510966,0.743171,-4.104468,-0.228881,1.368754,7.301586,-0.558175,-16.197647
4.060000,0.932409,1.160538,1.349085,1.276485,0.947864,-0.044842,0.621774,-0.513283,0.756034,-4.030539,-0.234479,1.203719,7.501083,-0.555478,-16.661647
4.070000,0.945204,1.169991,1.348674,1.282503,0.942720,-0.037224,0.581847,-0.515655,0.767231,-3.954618,-0.240003,1.035052,7.679810,-0.548517,-17.060823
4.080000,0.958057,1.179392,1.348341,1.288125,0.937551,-0.029503,0.542688,-0.518083,0.776723,-3.877005,-0.245436,0.862722,7.839658,-0.537563,-17.394142
4.090000,0.970965,1.188742,1.348085,1.293359,0.932358,-0.021696,0.504312,-0.520564,0.784475,-3.797881,-0.250742,0.687392,7.982516,-0.522887,-17.660572
4.100000,0.983923,1.198039,1.347907,1.298214,0.927140,-0.013819,0.466735,-0.523097,0.790463,-3.717405,-0.255883,0.509737,8.110275,-0.504758,-17.859080
4.110000,0.996928,1.207284,1.347808,1.302697,0.921896,-0.005892,0.429965,-0.525681,0.794658,-3.635982,-0.260825,0.329856,8.231453,-0.483478,-17.973882
4.120000,1.009976,1.216477,1.347789,1.306816,0.916626,0.002068,0.394019,-0.528313,0.797057,-3.553113,-0.265541,0.149828,8.340499,-0.459284,-18.020503
4.130000,1.023063,1.225617,1.347850,1.310580,0.911329,0.010043,0.358906,-0.530990,0.797654,-3.469209,-0.270002,-0.030329,8.438493,-0.432441,-17.999719
4.140000,1.036186,1.234704,1.347990,1.313997,0.906006,0.018015,0.324638,-0.533712,0.796452,-3.384376,-0.274182,-0.209944,8.526512,-0.403216,-17.912303
4.150000,1.049342,1.243737,1.348210,1.317075,0.900655,0.025966,0.291222,-0.536473,0.793460,-3.298708,-0.278059,-0.388356,8.605635,-0.371877,-17.759030
4.160000,1.062527,1.252717,1.348509,1.319824,0.895276,0.033879,0.258663,-0.539272,0.788686,-3.212595,-0.281600,-0.565394,8.684664,-0.339025,-17.528393
4.170000,1.075737,1.261642,1.348887,1.322252,0.889869,0.041734,0.226972,-0.542104,0.782160,-3.125386,-0.284819,-0.739262,8.756008,-0.304549,-17.234950
4.180000,1.088971,1.270514,1.349344,1.324367,0.884434,0.049516,0.196157,-0.544967,0.773912,-3.037500,-0.287686,-0.909891,8.819801,-0.268678,-16.880980
4.190000,1.102224,1.279331,1.349878,1.326178,0.878970,0.057207,0.166224,-0.547856,0.763975,-2.949014,-0.290189,-1.076688,8.876174,-0.231636,-16.468759
4.200000,1.115493,1.288093,1.350488,1.327694,0.873477,0.064790,0.137179,-0.550769,0.752393,-2.860001,-0.292316,-1.239080,8.925260,-0.193648,-16.000566
4.210000,1.128777,1.296800,1.351173,1.328924,0.867955,0.072249,0.109023,-0.553701,0.739207,-2.770764,-0.294034,-1.396864,8.973026,-0.155574,-15.470000
4.220000,1.142071,1.305452,1.351932,1.329878,0.862403,0.079569,0.081765,-0.556649,0.724474,-2.680827,-0.295397,-1.548700,9.013056,-0.116929,-14.889080
4.230000,1.155373,1.314048,1.352764,1.330563,0.856822,0.086734,0.055408,-0.559608,0.708253,-2.590530,-0.296372,-1.694489,9.044770,-0.077861,-14.261146
4.240000,1.168681,1.322588,1.353666,1.330989,0.851211,0.093729,0.029955,-0.562575,0.690606,-2.499961,-0.296954,-1.833777,9.067586,-0.038519,-13.589540
4.250000,1.181992,1.331072,1.354638,1.331165,0.845570,0.100542,0.005409,-0.565546,0.671600,-2.409210,-0.297142,-1.966145,9.080923,0.000948,-12.877602
4.260000,1.195304,1.339500,1.355676,1.331100,0.839900,0.107157,-0.018230,-0.568516,0.651305,-2.318467,-0.296914,-2.091386,9.086507,0.039869,-12.124111
4.270000,1.208613,1.347870,1.356780,1.330803,0.834200,0.113564,-0.040960,-0.571483,0.629798,-2.227620,-0.296321,-2.208720,9.081167,0.078683,-11.337528
4.280000,1.221919,1.356184,1.357947,1.330284,0.828470,0.119749,-0.062783,-0.574441,0.607158,-2.136883,-0.295341,-2.318040,9.064038,0.117306,-10.521752
4.290000,1.235218,1.364440,1.359174,1.329551,0.822711,0.125703,-0.083699,-0.577388,0.583465,-2.046381,-0.293976,-2.419071,9.034257,0.155653,-9.680681
4.300000,1.248509,1.372638,1.360460,1.328613,0.816922,0.131415,-0.103711,-0.580320,0.558805,-1.956243,-0.292229,-2.511582,8.990959,0.193642,-8.818216
4.310000,1.261790,1.380778,1.361802,1.327479,0.811105,0.136876,-0.122825,-0.583231,0.533262,-1.866550,-0.290093,-2.595392,8.931761,0.230903,-7.937887
4.320000,1.275058,1.388860,1.363197,1.326159,0.805258,0.142078,-0.141045,-0.586120,0.506926,-1.777590,-0.287600,-2.670311,8.857504,0.267671,-7.044006
4.330000,1.288313,1.396883,1.364643,1.324661,0.799382,0.147013,-0.158379,-0.588982,0.479886,-1.689452,-0.284742,-2.736240,8.767511,0.303897,-6.140517
4.340000,1.301551,1.404847,1.366136,1.322995,0.793478,0.151674,-0.174837,-0.591814,0.452232,-1.602295,-0.281524,-2.793102,8.661104,0.339531,-5.231366
4.350000,1.314772,1.412753,1.367675,1.321168,0.787546,0.156056,-0.190429,-0.594611,0.424054,-1.516287,-0.277953,-2.840861,8.537604,0.374524,-4.320497
4.360000,1.327974,1.420598,1.369256,1.319189,0.781586,0.160153,-0.205165,-0.597372,0.395446,-1.431425,-0.274026,-2.879381,8.391862,0.408577,-3.415362
4.370000,1.341155,1.428384,1.370877,1.317067,0.775599,0.163963,-0.219062,-0.600091,0.366497,-1.348310,-0.269773,-2.909031,8.228219,0.441921,-2.515968
4.380000,1.354315,1.436110,1.372535,1.314810,0.769585,0.167482,-0.232137,-0.602766,0.337296,-1.266921,-0.265190,-2.929731,8.046546,0.474536,-1.625829
4.390000,1.367451,1.443776,1.374226,1.312427,0.763544,0.170709,-0.244407,-0.605394,0.307932,-1.187439,-0.260285,-2.941590,7.846711,0.506406,-0.748460
4.400000,1.380563,1.451381,1.375948,1.309925,0.757477,0.173641,-0.255893,-0.607971,0.278493,-1.110047,-0.255064,-2.944755,7.628585,0.537510,0.112624
4.410000,1.393649,1.458925,1.377698,1.307312,0.751384,0.176278,-0.266613,-0.610494,0.249068,-1.034705,-0.249534,-2.939140,7.386372,0.567751,0.947244
4.420000,1.406709,1.466408,1.379472,1.304595,0.745267,0.178622,-0.276595,-0.612960,0.219737,-0.962127,-0.243708,-2.925587,7.126300,0.597200,1.759366
4.430000,1.419741,1.473830,1.381269,1.301782,0.739125,0.180674,-0.285865,-0.615367,0.190583,-0.892236,-0.237593,-2.904037,6.848934,0.625846,2.546291
4.440000,1.432744,1.481191,1.383085,1.298880,0.732960,0.182435,-0.294450,-0.617711,0.161682,-0.825204,-0.231194,-2.874754,6.554836,0.653682,3.305321
4.450000,1.445718,1.488490,1.384917,1.295895,0.726771,0.183909,-0.302379,-0.619990,0.133112,-0.761193,-0.224522,-2.838032,6.244571,0.680697,4.033756
4.460000,1.458662,1.495726,1.386762,1.292834,0.720560,0.185098,-0.309682,-0.622201,0.104949,-0.700161,-0.217583,-2.793844,5.913566,0.706872,4.720161
4.470000,1.471575,1.502901,1.388618,1.289704,0.714328,0.186009,-0.316393,-0.624341,0.077258,-0.642741,-0.210386,-2.743355,5.568148,0.732210,5.371645
4.480000,1.484456,1.510013,1.390481,1.286508,0.708074,0.186645,-0.322548,-0.626408,0.050103,-0.588842,-0.202941,-2.686533,5.209512,0.756705,5.986577
4.490000,1.497305,1.517062,1.392350,1.283254,0.701800,0.187013,-0.328182,-0.628399,0.023547,-0.538591,-0.195255,-2.623751,4.838848,0.780349,6.563330
4.500000,1.510121,1.524049,1.394221,1.279946,0.695506,0.187118,-0.333333,-0.630312,-0.002353,-0.492101,-0.187337,-2.555399,4.457350,0.803134,7.100274
4.510000,1.522903,1.530972,1.396091,1.276589,0.689194,0.186968,-0.338036,-0.632145,-0.027540,-0.449347,-0.179196,-2.481509,4.062967,0.825062,7.586313
4.520000,1.535652,1.537832,1.397959,1.273187,0.682864,0.186570,-0.342333,-0.633895,-0.051968,-0.410724,-0.170839,-2.403390,3.660531,0.846116,8.030444
4.530000,1.548367,1.544629,1.399822,1.269744,0.676516,0.185932,-0.346264,-0.635561,-0.075593,-0.376158,-0.162276,-2.321041,3.251632,0.866288,8.432199
4.540000,1.561047,1.551363,1.401677,1.266263,0.670153,0.185061,-0.349870,-0.637140,-0.098376,-0.345707,-0.153516,-2.234889,2.837861,0.885569,8.791106
4.550000,1.573692,1.558032,1.403523,1.262747,0.663774,0.183967,-0.353192,-0.638631,-0.120280,-0.319412,-0.144568,-2.145364,2.420807,0.903950,9.106697
4.560000,1.586302,1.564638,1.405356,1.259200,0.657380,0.182658,-0.356272,-0.640031,-0.141270,-0.297269,-0.135440,-2.052552,2.001364,0.921416,9.369688
4.570000,1.598876,1.571180,1.407175,1.255622,0.650973,0.181145,-0.359151,-0.641339,-0.161323,-0.279354,-0.126142,-1.957720,1.581902,0.937966,9.589501
4.580000,1.611414,1.577658,1.408978,1.252017,0.644554,0.179435,-0.361873,-0.642553,-0.180417,-0.265626,-0.116684,-1.860904,1.164097,0.953594,9.766748
4.590000,1.623916,1.584071,1.410763,1.248385,0.638123,0.177539,-0.364478,-0.643672,-0.198536,-0.256061,-0.107074,-1.762525,0.749622,0.968292,9.902037
4.600000,1.636382,1.590420,1.412528,1.244728,0.631681,0.175468,-0.367008,-0.644694,-0.215664,-0.250617,-0.097321,-1.663001,0.340152,0.982053,9.995978
4.610000,1.648811,1.596705,1.414272,1.241045,0.625229,0.173229,-0.369504,-0.645618,-0.231790,-0.249305,-0.087434,-1.562465,-0.060881,0.994826,10.042188
4.620000,1.661203,1.602925,1.415992,1.237338,0.618769,0.170835,-0.372007,-0.646442,-0.246913,-0.251886,-0.077426,-1.461976,-0.453773,1.006652,10.049125
4.630000,1.673557,1.609080,1.417688,1.233605,0.612301,0.168295,-0.374555,-0.647166,-0.261030,-0.258348,-0.067304,-1.361608,-0.837067,1.017528,10.018256
4.640000,1.685875,1.615171,1.419358,1.229846,0.605826,0.165618,-0.377187,-0.647788,-0.274146,-0.268590,-0.057078,-1.261732,-1.209301,1.027453,9.951046
4.650000,1.698154,1.621196,1.421000,1.226061,0.599345,0.162815,-0.379939,-0.648307,-0.286268,-0.282493,-0.046758,-1.162703,-1.569017,1.036424,9.848962
4.660000,1.710396,1.627157,1.422614,1.222247,0.592860,0.159896,-0.382850,-0.648723,-0.297402,-0.300064,-0.036351,-1.064689,-1.911220,1.044376,9.709042
4.670000,1.722599,1.633054,1.424198,1.218403,0.586371,0.156870,-0.385951,-0.649034,-0.307567,-0.320825,-0.025871,-0.968430,-2.238417,1.051377,9.537721
4.680000,1.734764,1.638885,1.425751,1.214527,0.579880,0.153748,-0.389277,-0.649240,-0.316777,-0.344779,-0.015326,-0.874032,-2.549584,1.057434,9.337007
4.690000,1.746889,1.644651,1.427272,1.210617,0.573387,0.150538,-0.392857,-0.649340,-0.325054,-0.371760,-0.004725,-0.781781,-2.843692,1.062551,9.108909
4.700000,1.758976,1.650353,1.428761,1.206669,0.566893,0.147250,-0.396722,-0.649335,-0.332421,-0.401592,0.005922,-0.691939,-3.119716,1.066735,8.855435
4.710000,1.771023,1.655989,1.430217,1.202682,0.560400,0.143892,-0.400900,-0.649222,-0.338901,-0.434263,0.016609,-0.604685,-3.372275,1.069925,8.576958
4.720000,1.783029,1.661561,1.431639,1.198650,0.553909,0.140474,-0.405415,-0.649002,-0.344524,-0.469167,0.027320,-0.520397,-3.605229,1.072200,8.277321
4.730000,1.794996,1.667067,1.433026,1.194572,0.547421,0.137004,-0.410291,-0.648675,-0.349320,-0.506300,0.038050,-0.439202,-3.818084,1.073574,7.958732
4.740000,1.806921,1.672509,1.434379,1.190443,0.540936,0.133491,-0.415548,-0.648241,-0.353319,-0.545460,0.048789,-0.361278,-4.010349,1.074061,7.623400
4.750000,1.818804,1.677886,1.435696,1.186260,0.534456,0.129941,-0.421206,-0.647700,-0.356557,-0.586437,0.059528,-0.286782,-4.181528,1.073673,7.273534
4.760000,1.830646,1.683198,1.436978,1.182018,0.527982,0.126362,-0.427284,-0.647051,-0.359067,-0.629185,0.070264,-0.215884,-4.326917,1.072317,6.912245
4.770000,1.842444,1.688446,1.438223,1.177713,0.521515,0.122762,-0.433794,-0.646294,-0.360887,-0.673092,0.080976,-0.148612,-4.450751,1.070127,6.540728
4.780000,1.854200,1.693629,1.439433,1.173340,0.515057,0.119146,-0.440749,-0.645431,-0.362052,-0.718129,0.091663,-0.085097,-4.553050,1.067130,6.161080
4.790000,1.865911,1.698747,1.440606,1.168896,0.508607,0.115523,-0.448160,-0.644461,-0.362601,-0.764081,0.102316,-0.025410,-4.633838,1.063353,5.775398
4.800000,1.877577,1.703801,1.441743,1.164376,0.502168,0.111896,-0.456033,-0.643385,-0.362573,-0.810734,0.112928,0.030398,-4.693136,1.058823,5.385779
4.810000,1.889198,1.708790,1.442844,1.159774,0.495740,0.108273,-0.464377,-0.642203,-0.362008,-0.858005,0.123494,0.082187,-4.727601,1.053483,4.997165
4.820000,1.900773,1.713716,1.443909,1.155087,0.489324,0.104658,-0.473194,-0.640915,-0.360942,-0.905366,0.133999,0.130214,-4.741032,1.047454,4.608461
4.830000,1.912300,1.718577,1.444937,1.150309,0.482922,0.101056,-0.482485,-0.639523,-0.359416,-0.952757,0.144441,0.174361,-4.733866,1.040773,4.221419
4.840000,1.923778,1.723374,1.445930,1.145435,0.476534,0.097471,-0.492249,-0.638027,-0.357468,-0.999976,0.154812,0.214654,-4.706535,1.033476,3.837787
4.850000,1.935208,1.728107,1.446887,1.140462,0.470162,0.093908,-0.502483,-0.636427,-0.355136,-1.046822,0.165108,0.251134,-4.659475,1.025601,3.459315
4.860000,1.946587,1.732777,1.447808,1.135384,0.463806,0.090369,-0.513184,-0.634725,-0.352459,-1.093187,0.175324,0.283704,-4.590961,1.017144,3.091774
4.870000,1.957915,1.737384,1.448694,1.130197,0.457468,0.086859,-0.524344,-0.632921,-0.349474,-1.138676,0.185451,0.312817,-4.503852,1.008188,2.732400
4.880000,1.969191,1.741927,1.449545,1.124896,0.451148,0.083381,-0.535954,-0.631016,-0.346215,-1.183204,0.195486,0.338383,-4.398844,0.998774,2.382450
4.890000,1.980413,1.746407,1.450362,1.119476,0.444848,0.079936,-0.548004,-0.629011,-0.342718,-1.226595,0.205425,0.360502,-4.276638,0.988945,2.043183
4.900000,1.991580,1.750824,1.451144,1.113934,0.438568,0.076527,-0.560482,-0.626908,-0.339016,-1.268682,0.215264,0.379287,-4.137932,0.978741,1.715853
4.910000,2.002691,1.755178,1.451893,1.108265,0.432310,0.073156,-0.573374,-0.624707,-0.335145,-1.309338,0.225001,0.394687,-3.982510,0.968163,1.406175
4.920000,2.013745,1.759470,1.452607,1.102465,0.426074,0.069825,-0.586663,-0.622408,-0.331132,-1.348323,0.234628,0.407258,-3.812097,0.957301,1.110404
4.930000,2.024740,1.763700,1.453289,1.096531,0.419862,0.066534,-0.600334,-0.620014,-0.327009,-1.385532,0.244146,0.416944,-3.627506,0.946201,0.829253
4.940000,2.035675,1.767867,1.453938,1.090457,0.413674,0.063285,-0.614368,-0.617526,-0.322803,-1.420828,0.253552,0.423894,-3.429545,0.934911,0.563434
4.950000,2.046549,1.771973,1.454555,1.084242,0.407512,0.060078,-0.628744,-0.614944,-0.318540,-1.454081,0.262844,0.428266,-3.219027,0.923478,0.313660
4.960000,2.057359,1.776018,1.455140,1.077882,0.401376,0.056914,-0.643442,-0.612269,-0.314247,-1.485166,0.272021,0.430054,-2.996849,0.911945,0.084909
4.970000,2.068106,1.780001,1.455694,1.071372,0.395267,0.053793,-0.658440,-0.609504,-0.309946,-1.513978,0.281083,0.429830,-2.763724,0.900364,-0.126897
4.980000,2.078786,1.783923,1.456216,1.064712,0.389186,0.050715,-0.673714,-0.606648,-0.305657,-1.540407,0.290028,0.427573,-2.520453,0.888783,-0.321569
4.990000,2.089399,1.787785,1.456708,1.057897,0.383134,0.047680,-0.689239,-0.603703,-0.301401,-1.564356,0.298858,0.423456,-2.267836,0.877249,-0.498917
5.000000,2.099944,1.791586,1.457170,1.050926,0.377112,0.044687,-0.704992,-0.600671,-0.297194,-1.585735,0.307574,0.417653,-2.006673,0.865810,-0.658752
5.010000,2.110417,1.795327,1.457602,1.043797,0.371121,0.041736,-0.720945,-0.597552,-0.293054,-1.604435,0.316174,0.410196,-1.738486,0.854553,-0.797237
5.020000,2.120819,1.799008,1.458005,1.036507,0.365161,0.038826,-0.737072,-0.594348,-0.288994,-1.620449,0.324664,0.401604,-1.463264,0.843482,-0.918277
5.030000,2.131147,1.802630,1.458378,1.029055,0.359234,0.035956,-0.753345,-0.591059,-0.285026,-1.633679,0.333044,0.391888,-1.181721,0.832639,-1.022129
5.040000,2.141400,1.806193,1.458724,1.021439,0.353340,0.033125,-0.769736,-0.587688,-0.281160,-1.644065,0.341317,0.381218,-0.894569,0.822069,-1.109051
5.050000,2.151575,1.809697,1.459041,1.013660,0.347481,0.030332,-0.786216,-0.584233,-0.277404,-1.651554,0.349486,0.369762,-0.602518,0.811813,-1.179299
5.060000,2.161672,1.813143,1.459331,1.005715,0.341656,0.027576,-0.802757,-0.580698,-0.273768,-1.656063,0.357551,0.357577,-0.307242,0.802003,-1.230357
5.070000,2.171689,1.816530,1.459593,0.997605,0.335867,0.024856,-0.819328,-0.577083,-0.270254,-1.657644,0.365524,0.345084,-0.008374,0.792584,-1.265595
5.080000,2.181624,1.819860,1.459828,0.989328,0.330114,0.022171,-0.835900,-0.573388,-0.266867,-1.656221,0.373404,0.332315,0.293491,0.783586,-1.285612
5.090000,2.191475,1.823133,1.460036,0.980887,0.324399,0.019519,-0.852442,-0.569615,-0.263608,-1.651766,0.381197,0.319420,0.597759,0.775042,-1.291004
5.100000,2.201241,1.826348,1.460218,0.972280,0.318722,0.016898,-0.868925,-0.565764,-0.260478,-1.644260,0.388907,0.306542,0.903836,0.766984,-1.282367
5.110000,2.210920,1.829507,1.460374,0.963508,0.313084,0.014309,-0.885317,-0.561837,-0.257478,-1.633651,0.396533,0.293746,1.210262,0.759586,-1.258498
5.120000,2.220511,1.832610,1.460505,0.954574,0.307486,0.011748,-0.901588,-0.557834,-0.254603,-1.620013,0.404094,0.281334,1.517415,0.752720,-1.222016
5.130000,2.230011,1.835657,1.460609,0.945477,0.301928,0.009216,-0.917707,-0.553755,-0.251850,-1.603302,0.411589,0.269345,1.824806,0.746401,-1.173738
5.140000,2.239420,1.838649,1.460689,0.936220,0.296411,0.006711,-0.933643,-0.549602,-0.249214,-1.583518,0.419024,0.257896,2.131946,0.740643,-1.114482
5.150000,2.248735,1.841586,1.460744,0.926805,0.290936,0.004232,-0.949367,-0.545375,-0.246689,-1.560666,0.426404,0.247090,2.438349,0.735462,-1.045065
5.160000,2.257955,1.844468,1.460774,0.917234,0.285504,0.001777,-0.964846,-0.541075,-0.244270,-1.534733,0.433727,0.236992,2.742967,0.731063,-0.965475
5.170000,2.267079,1.847296,1.460779,0.907509,0.280115,-0.000654,-0.980051,-0.536701,-0.241947,-1.505787,0.441018,0.227771,3.045939,0.727245,-0.877462
5.180000,2.276105,1.850070,1.460761,0.897634,0.274770,-0.003062,-0.994952,-0.532254,-0.239711,-1.473821,0.448274,0.219468,3.346844,0.724001,-0.781945
5.190000,2.285031,1.852791,1.460718,0.887611,0.269470,-0.005449,-1.009518,-0.527735,-0.237554,-1.438859,0.455500,0.212154,3.645262,0.721320,-0.679843
5.200000,2.293857,1.855460,1.460652,0.877445,0.264216,-0.007814,-1.023719,-0.523144,-0.235465,-1.400926,0.462702,0.205890,3.940773,0.719195,-0.572077
5.210000,2.302580,1.858076,1.460562,0.867138,0.259007,-0.010158,-1.037526,-0.518481,-0.233433,-1.360048,0.469877,0.200731,4.232793,0.717843,-0.459636
5.220000,2.311199,1.860640,1.460449,0.856695,0.253846,-0.012482,-1.050910,-0.513747,-0.231446,-1.316275,0.477051,0.196713,4.521085,0.717000,-0.343360
5.230000,2.319713,1.863153,1.460312,0.846121,0.248733,-0.014787,-1.063842,-0.508940,-0.229494,-1.269640,0.484219,0.193874,4.805250,0.716630,-0.224161
5.240000,2.328121,1.865615,1.460153,0.835420,0.243668,-0.017072,-1.076294,-0.504062,-0.227565,-1.220185,0.491385,0.192237,5.084888,0.716696,-0.102949
5.250000,2.336421,1.868027,1.459971,0.824597,0.238652,-0.019338,-1.088237,-0.499113,-0.225646,-1.167958,0.498554,0.191819,5.359599,0.717162,0.019365
5.260000,2.344613,1.870388,1.459766,0.813657,0.233686,-0.021585,-1.099644,-0.494091,-0.223724,-1.113019,0.505720,0.192659,5.629182,0.718234,0.141010
5.270000,2.352694,1.872700,1.459539,0.802606,0.228770,-0.023813,-1.110488,-0.488998,-0.221788,-1.055403,0.512909,0.194675,5.893014,0.719601,0.262041
5.280000,2.360664,1.874964,1.459290,0.791449,0.223906,-0.026021,-1.120743,-0.483833,-0.219827,-0.995179,0.520113,0.197895,6.150670,0.721200,0.381651
5.290000,2.368523,1.877179,1.459019,0.780193,0.219094,-0.028209,-1.130383,-0.478596,-0.217827,-0.932411,0.527333,0.202301,6.401726,0.722963,0.499035
5.300000,2.376268,1.879346,1.458726,0.768844,0.214334,-0.030377,-1.139383,-0.473287,-0.215777,-0.867168,0.534572,0.207866,6.645759,0.724824,0.613388
5.310000,2.383899,1.881466,1.458412,0.757408,0.209628,-0.032525,-1.147719,-0.467905,-0.213665,-0.799539,0.541821,0.214615,6.882787,0.726945,0.722400
5.320000,2.391416,1.883539,1.458076,0.745892,0.204976,-0.034650,-1.155366,-0.462450,-0.211481,-0.729558,0.549101,0.222366,7.111888,0.729004,0.826953
5.330000,2.398817,1.885565,1.457719,0.734303,0.200379,-0.036754,-1.162303,-0.456923,-0.209214,-0.657329,0.556400,0.231137,7.332583,0.730906,0.926426
5.340000,2.406102,1.887546,1.457341,0.722648,0.195838,-0.038834,-1.168506,-0.451322,-0.206855,-0.582936,0.563718,0.240875,7.544394,0.732557,1.020198
5.350000,2.413270,1.889482,1.456942,0.710935,0.191353,-0.040891,-1.173954,-0.445648,-0.204394,-0.506472,0.571050,0.251520,7.746841,0.733863,1.107646
5.360000,2.420320,1.891374,1.456523,0.699172,0.186925,-0.042922,-1.178629,-0.439901,-0.201821,-0.428053,0.578386,0.263083,7.939975,0.734915,1.186181
5.370000,2.427253,1.893221,1.456084,0.687365,0.182555,-0.044927,-1.182509,-0.434080,-0.199129,-0.347731,0.585739,0.275307,8.122723,0.735411,1.257391
5.380000,2.434067,1.895025,1.455624,0.675524,0.178244,-0.046904,-1.185578,-0.428186,-0.196312,-0.265635,0.593092,0.288205,8.294543,0.735233,1.320895
5.390000,2.440763,1.896786,1.455146,0.663657,0.173992,-0.048853,-1.187816,-0.422219,-0.193363,-0.181878,0.600441,0.301698,8.454891,0.734266,1.376313
5.400000,2.447340,1.898505,1.454647,0.651771,0.169800,-0.050771,-1.189210,-0.416177,-0.190277,-0.096577,0.607775,0.315703,8.603224,0.732392,1.423264
5.410000,2.453799,1.900182,1.454130,0.639875,0.165669,-0.052658,-1.189743,-0.410063,-0.187047,-0.009874,0.615080,0.330222,8.739455,0.729617,1.459147
5.420000,2.460138,1.901818,1.453594,0.627979,0.161599,-0.054511,-1.189403,-0.403876,-0.183671,0.078147,0.622358,0.344956,8.862528,0.725686,1.486073
5.430000,2.466358,1.903414,1.453040,0.616090,0.157591,-0.056331,-1.188177,-0.397616,-0.180147,0.167331,0.629590,0.359913,8.971845,0.720468,1.503936
5.440000,2.472460,1.904971,1.452468,0.604218,0.153647,-0.058114,-1.186053,-0.391284,-0.176473,0.257536,0.636762,0.375004,9.066807,0.713831,1.512626
5.450000,2.478443,1.906488,1.451878,0.592372,0.149766,-0.059860,-1.183023,-0.384881,-0.172647,0.348617,0.643861,0.390135,9.146814,0.705644,1.512034
5.460000,2.484307,1.907966,1.451271,0.580561,0.145949,-0.061566,-1.179078,-0.378407,-0.168669,0.440411,0.650868,0.405302,9.211509,0.695812,1.499816
5.470000,2.490054,1.909407,1.450647,0.568794,0.142198,-0.063232,-1.174213,-0.371864,-0.164541,0.532783,0.657770,0.420200,9.260022,0.684161,1.478373
5.480000,2.495683,1.910810,1.450006,0.557080,0.138512,-0.064857,-1.168421,-0.365252,-0.160266,0.625556,0.664545,0.434839,9.291724,0.670555,1.447872
5.490000,2.501196,1.912177,1.449350,0.545428,0.134893,-0.066437,-1.161701,-0.358574,-0.155846,0.718559,0.671174,0.449128,9.305986,0.654858,1.408476
5.500000,2.506592,1.913508,1.448678,0.533849,0.131341,-0.067973,-1.154050,-0.351830,-0.151285,0.811615,0.677635,0.462979,9.302178,0.636934,1.360352
5.510000,2.511873,1.914804,1.447991,0.522350,0.127857,-0.069463,-1.145469,-0.345022,-0.146587,0.904542,0.683906,0.476386,9.279644,0.616608,1.301657
5.520000,2.517039,1.916066,1.447289,0.510942,0.124441,-0.070904,-1.135960,-0.338152,-0.141759,0.997145,0.689960,0.489075,9.237786,0.593787,1.234811
5.530000,2.522092,1.917293,1.446573,0.499634,0.121094,-0.072297,-1.125528,-0.331223,-0.136808,1.089231,0.695773,0.501056,9.175981,0.568339,1.160223
5.540000,2.527033,1.918488,1.445843,0.488435,0.117817,-0.073640,-1.114178,-0.324238,-0.131741,1.180596,0.701318,0.512255,9.093603,0.540133,1.078306
5.550000,2.531861,1.919650,1.445100,0.477354,0.114609,-0.074932,-1.101919,-0.317198,-0.126566,1.271032,0.706566,0.522599,8.990028,0.509036,0.989470
5.560000,2.536580,1.920780,1.444344,0.466400,0.111473,-0.076171,-1.088761,-0.310107,-0.121291,1.360335,0.711492,0.532084,8.864342,0.474835,0.892571
5.570000,2.541190,1.921880,1.443577,0.455581,0.108407,-0.077357,-1.074717,-0.302969,-0.115927,1.448257,0.716056,0.540501,8.716244,0.437491,0.789766
5.580000,2.545692,1.922949,1.442797,0.444908,0.105414,-0.078489,-1.059801,-0.295788,-0.110485,1.534583,0.720231,0.547862,8.545143,0.396882,0.681657
5.590000,2.550089,1.923988,1.442007,0.434388,0.102492,-0.079567,-1.044031,-0.288566,-0.104974,1.619081,0.723982,0.554118,8.350449,0.352885,0.568846
5.600000,2.554380,1.924999,1.441206,0.424030,0.099642,-0.080589,-1.027427,-0.281309,-0.099406,1.701512,0.727277,0.559225,8.131573,0.305381,0.451935
5.610000,2.558570,1.925981,1.440396,0.413842,0.096866,-0.081555,-1.010009,-0.274022,-0.093793,1.781649,0.730083,0.563182,7.887439,0.254126,0.330586
5.620000,2.562658,1.926936,1.439575,0.403833,0.094162,-0.082465,-0.991802,-0.266710,-0.088147,1.859198,0.732352,0.565869,7.618002,0.199135,0.206456
5.630000,2.566647,1.927865,1.438746,0.394009,0.091532,-0.083318,-0.972834,-0.259377,-0.082480,1.933923,0.734053,0.567304,7.322732,0.140300,0.080260
5.640000,2.570539,1.928767,1.437909,0.384379,0.088975,-0.084114,-0.953134,-0.252030,-0.076805,2.005565,0.735145,0.567470,7.001099,0.077514,-0.047285
5.650000,2.574335,1.929644,1.437064,0.374949,0.086491,-0.084854,-0.932734,-0.244676,-0.071135,2.073856,0.735589,0.566357,6.652573,0.010672,-0.175462
5.660000,2.578038,1.930497,1.436212,0.365726,0.084081,-0.085537,-0.911669,-0.237321,-0.065482,2.138551,0.735358,0.563971,6.275968,-0.060676,-0.303795
5.670000,2.581650,1.931326,1.435354,0.356717,0.081745,-0.086164,-0.889976,-0.229972,-0.059859,2.199311,0.734377,0.560294,5.871489,-0.136253,-0.431298
5.680000,2.585173,1.932132,1.434489,0.347929,0.079482,-0.086734,-0.867696,-0.222636,-0.054280,2.255886,0.732619,0.555350,5.438686,-0.216124,-0.557225
5.690000,2.588610,1.932916,1.433619,0.339365,0.077292,-0.087249,-0.844873,-0.215322,-0.048757,2.307989,0.730040,0.549157,4.977109,-0.300355,-0.680831
5.700000,2.591962,1.933678,1.432744,0.331033,0.075175,-0.087710,-0.821552,-0.208038,-0.043301,2.355331,0.726597,0.541744,4.486308,-0.389010,-0.801368
5.710000,2.595231,1.934420,1.431865,0.322936,0.073131,-0.088116,-0.797783,-0.200792,-0.037926,2.397678,0.722321,0.533126,3.964276,-0.484088,-0.917659
5.720000,2.598421,1.935141,1.430982,0.315078,0.071159,-0.088468,-0.773617,-0.193595,-0.032642,2.434586,0.716987,0.523386,3.412311,-0.583484,-1.029443
5.730000,2.601534,1.935843,1.430096,0.307464,0.069259,-0.088769,-0.749110,-0.186456,-0.027462,2.465824,0.710638,0.512554,2.830153,-0.687028,-1.136028
5.740000,2.604571,1.936527,1.429207,0.300097,0.067430,-0.089018,-0.724320,-0.179386,-0.022395,2.491088,0.703233,0.500685,2.217542,-0.794546,-1.236720
5.750000,2.607536,1.937192,1.428316,0.292979,0.065671,-0.089217,-0.699309,-0.172395,-0.017451,2.510072,0.694734,0.487842,1.574219,-0.905868,-1.330826
5.760000,2.610432,1.937840,1.427423,0.286111,0.063981,-0.089367,-0.674137,-0.165490,-0.012641,2.522773,0.685520,0.474055,0.892236,-1.031337,-1.416684
5.770000,2.613259,1.938472,1.426529,0.279496,0.062361,-0.089470,-0.648877,-0.158689,-0.007973,2.528159,0.674570,0.459491,0.179963,-1.158979,-1.494688
5.780000,2.616022,1.939088,1.425634,0.273134,0.060807,-0.089527,-0.623599,-0.152003,-0.003454,2.526274,0.662338,0.444189,-0.561917,-1.287336,-1.564265
5.790000,2.618723,1.939688,1.424738,0.267024,0.059320,-0.089540,-0.598377,-0.145446,0.000909,2.516824,0.648825,0.428236,-1.332722,-1.414948,-1.624841
5.800000,2.621364,1.940274,1.423843,0.261166,0.057898,-0.089510,-0.573288,-0.139031,0.005109,2.499525,0.634046,0.411724,-2.131771,-1.540357,-1.675840
5.810000,2.623947,1.940846,1.422948,0.255557,0.056538,-0.089438,-0.548395,-0.132748,0.009141,2.475747,0.620028,0.394702,-3.000054,-1.712559,-1.715408
5.820000,2.626476,1.941405,1.422054,0.250196,0.055242,-0.089327,-0.523803,-0.126636,0.013002,2.441312,0.602085,0.377394,-3.890113,-1.873461,-1.744408
5.830000,2.628952,1.941952,1.421162,0.245080,0.054005,-0.089179,-0.499599,-0.120711,0.016688,2.397891,0.582622,0.359850,-4.796164,-2.015427,-1.762423
5.840000,2.631378,1.942486,1.420271,0.240203,0.052827,-0.088994,-0.475875,-0.114988,0.020198,2.345355,0.561865,0.342183,-5.712423,-2.130818,-1.769036
5.850000,2.633757,1.943008,1.419382,0.235560,0.051705,-0.088776,-0.452723,-0.109477,0.023532,2.283628,0.540120,0.324509,-6.633104,-2.211998,-1.763829
5.860000,2.636090,1.943520,1.418496,0.231146,0.050636,-0.088524,-0.430233,-0.104187,0.026689,2.212697,0.517765,0.306948,-7.552423,-2.251330,-1.746385
5.870000,2.638380,1.944021,1.417612,0.226953,0.049620,-0.088242,-0.408499,-0.099122,0.029672,2.132604,0.495258,0.289624,-8.464596,-2.241176,-1.716287
5.880000,2.640630,1.944512,1.416731,0.222973,0.048653,-0.087931,-0.387611,-0.094281,0.032483,2.043448,0.473132,0.272665,-9.363836,-2.173899,-1.673117
5.890000,2.642840,1.944994,1.415853,0.219198,0.047734,-0.087593,-0.367660,-0.089656,0.035127,1.945389,0.451996,0.256206,-10.244361,-2.041862,-1.616458
5.900000,2.645014,1.945467,1.414979,0.215617,0.046859,-0.087229,-0.348733,-0.085235,0.037609,1.838643,0.432536,0.240383,-11.100384,-1.837428,-1.545893
5.910000,2.647153,1.945932,1.414109,0.212219,0.046028,-0.086842,-0.330915,-0.080997,0.039937,1.723483,0.415514,0.225336,-11.926122,-1.552959,-1.461003
5.920000,2.649259,1.946388,1.413242,0.208994,0.045239,-0.086431,-0.314290,-0.076914,0.042119,1.600240,0.401769,0.211212,-12.715789,-1.180819,-1.361372
5.930000,2.651334,1.946837,1.412380,0.205929,0.044490,-0.086000,-0.298936,-0.072948,0.044165,1.469306,0.392215,0.198159,-13.463601,-0.713370,-1.246583
5.940000,2.653378,1.947278,1.411522,0.203011,0.043780,-0.085548,-0.284928,-0.069053,0.046086,1.331127,0.387845,0.186332,-14.163773,-0.142974,-1.116218
5.950000,2.655394,1.947712,1.410669,0.200226,0.043109,-0.085078,-0.272336,-0.065170,0.047896,1.186209,0.389724,0.175888,-14.810520,0.538004,-0.969860
5.960000,2.657383,1.948140,1.409821,0.197560,0.042477,-0.084591,-0.261224,-0.061233,0.049609,1.035114,0.398999,0.166989,-15.398058,1.337204,-0.807091
5.970000,2.659346,1.948562,1.408977,0.194997,0.041884,-0.084086,-0.251652,-0.057162,0.051241,0.878464,0.416888,0.159802,-15.920603,2.262261,-0.627493
5.980000,2.661284,1.948978,1.408139,0.192521,0.041334,-0.083566,-0.243671,-0.052863,0.052811,0.716938,0.444689,0.154497,-16.372368,3.320813,-0.430651
5.990000,2.663197,1.949389,1.407306,0.190118,0.040828,-0.083030,-0.237327,-0.048230,0.054338,0.551272,0.483775,0.151248,-16.747570,4.520497,-0.216146
6.000000,2.665086,1.949795,1.406479,0.187769,0.040371,-0.082479,-0.232657,-0.043145,0.055844,0.382261,0.535595,0.150234,-17.040423,5.868950,0.016440
