time,x,y,z,vx,vy,vz,ax,ay,az,jx,jy,jz,sx,sy,sz,roll,pitch,yaw,p,q,r
0.000000,-1.490530,-2.327297,-1.453732,0.017727,0.009284,-0.007840,-0.838486,-0.082064,0.066763,18.351432,-1.170076,-0.304566,-289.587068,169.825390,-6.719272,-0.008391,0.085847,0.000000,-0.120730,-1.872262,-0.000000
0.010000,-1.490391,-2.327209,-1.453807,0.010213,0.008432,-0.007189,-0.668790,-0.085661,0.063393,15.652167,0.412794,-0.368419,-250.890454,147.083706,-6.048307,-0.008768,0.068510,0.000000,0.041618,-1.600903,-0.000000
0.020000,-1.490320,-2.327128,-1.453876,0.004267,0.007620,-0.006574,-0.524214,-0.074533,0.059418,13.321428,1.778146,-0.425475,-215.852184,126.306215,-5.360309,-0.007633,0.053711,0.000000,0.181863,-1.364581,0.000000
0.030000,-1.490302,-2.327056,-1.453939,-0.000344,0.006984,-0.006002,-0.401253,-0.050759,0.054907,11.323519,2.945154,-0.475580,-184.295112,107.399445,-4.658760,-0.005199,0.041109,0.000000,0.301651,-1.160806,0.000000
0.040000,-1.490323,-2.326988,-1.453996,-0.003819,0.006640,-0.005478,-0.296748,-0.016230,0.049930,9.624513,3.932059,-0.518617,-156.042088,90.269922,-3.947145,-0.001662,0.030395,0.000000,0.402723,-0.986813,0.000000
0.050000,-1.490375,-2.326921,-1.454049,-0.006331,0.006689,-0.005005,-0.207873,0.027339,0.044558,8.192254,4.756165,-0.554501,-130.915967,74.824171,-3.228947,0.002799,0.021283,0.000000,0.486817,-0.839727,0.000000
0.060000,-1.490447,-2.326852,-1.454097,-0.008021,0.007212,-0.004588,-0.132115,0.078405,0.038864,6.996361,5.433843,-0.583185,-108.739599,60.968718,-2.507649,0.008023,0.013520,0.000000,0.555624,-0.716676,-0.000000
0.070000,-1.490533,-2.326775,-1.454141,-0.009009,0.008278,-0.004228,-0.067254,0.135580,0.032918,6.008220,5.980529,-0.604655,-89.335837,48.610092,-1.786736,0.013866,0.006879,0.000000,0.610758,-0.614858,0.000000
0.080000,-1.490625,-2.326685,-1.454181,-0.009395,0.009940,-0.003930,-0.011348,0.197627,0.026795,5.200992,6.410723,-0.618933,-72.527533,37.654816,-1.069691,0.020198,0.001160,0.000000,0.653746,-0.531589,-0.000000
0.090000,-1.490719,-2.326574,-1.454219,-0.009260,0.012243,-0.003693,0.037285,0.263451,0.020564,4.549609,6.737992,-0.626074,-58.137541,28.009419,-0.359997,0.026905,-0.003809,0.000000,0.686022,-0.464328,-0.000000
0.100000,-1.490809,-2.326438,-1.454255,-0.008669,0.015218,-0.003519,0.080086,0.332086,0.014297,4.030771,6.974966,-0.626169,-45.988711,19.580425,0.338862,0.033887,-0.008175,0.000000,0.708924,-0.410698,0.000000
0.110000,-1.490891,-2.326268,-1.454290,-0.007674,0.018891,-0.003407,0.118271,0.402689,0.008063,3.622954,7.133343,-0.619344,-35.903897,12.274362,1.023402,0.041056,-0.012065,0.000000,0.723696,-0.368489,-0.000000
0.120000,-1.490961,-2.326057,-1.454324,-0.006316,0.023276,-0.003357,0.152849,0.474527,0.001932,3.306404,7.223885,-0.605760,-27.705950,5.997755,1.690140,0.048338,-0.015583,0.000000,0.731482,-0.335674,-0.000000
0.130000,-1.491016,-2.325800,-1.454357,-0.004626,0.028384,-0.003368,0.184643,0.546973,-0.004030,3.063136,7.256418,-0.585612,-21.217723,0.657131,2.335592,0.055666,-0.018812,0.000000,0.733333,-0.310404,0.000000
0.140000,-1.491053,-2.325487,-1.454391,-0.002630,0.034216,-0.003437,0.214302,0.619492,-0.009759,2.876941,7.239836,-0.559131,-16.262068,-3.840983,2.956274,0.062988,-0.021820,0.000000,0.730199,-0.291015,0.000000
0.150000,-1.491068,-2.325113,-1.454426,-0.000346,0.040772,-0.003562,0.242323,0.691633,-0.015192,2.733377,7.182095,-0.526581,-12.661838,-7.590063,3.548704,0.070257,-0.024658,0.000000,0.722933,-0.276028,-0.000000
0.160000,-1.491059,-2.324670,-1.454463,0.002212,0.048046,-0.003740,0.269069,0.763020,-0.020271,2.619776,7.090220,-0.488263,-10.239885,-10.683580,4.109397,0.077435,-0.027365,0.000000,0.712289,-0.264149,0.000000
0.170000,-1.491023,-2.324150,-1.454501,0.005032,0.056029,-0.003966,0.294782,0.833344,-0.024940,2.525242,6.970297,-0.444511,-8.819061,-13.215010,4.634870,0.084493,-0.029964,0.000000,0.698921,-0.254268,-0.000000
0.180000,-1.490957,-2.323547,-1.454542,0.008105,0.064709,-0.004237,0.319607,0.902350,-0.029145,2.440648,6.827482,-0.395694,-8.222218,-15.277825,5.121639,0.091406,-0.032472,0.000000,0.683382,-0.245459,-0.000000
0.190000,-1.490860,-2.322853,-1.454586,0.011422,0.074071,-0.004547,0.343604,0.969831,-0.032838,2.358642,6.665991,-0.342218,-8.272209,-16.965500,5.566220,0.098155,-0.034895,0.000000,0.666129,-0.236980,-0.000000
0.200000,-1.490728,-2.322063,-1.454633,0.014974,0.084100,-0.004892,0.366769,1.035618,-0.035975,2.273639,6.489110,-0.284522,-8.791886,-18.371507,5.965131,0.104724,-0.037233,0.000000,0.647516,-0.228268,0.000000
0.210000,-1.490560,-2.321169,-1.454684,0.018766,0.094769,-0.005265,0.388612,1.099872,-0.038513,2.141131,6.327047,-0.222786,-8.576183,-20.292960,6.307472,0.111132,-0.039439,0.000000,0.630608,-0.214844,0.000000
0.220000,-1.490352,-2.320166,-1.454739,0.022758,0.106081,-0.005660,0.409595,1.162098,-0.040420,2.055422,6.115267,-0.158214,-8.601738,-22.033533,6.598083,0.117331,-0.041558,0.000000,0.608906,-0.206209,-0.000000
0.230000,-1.490104,-2.319046,-1.454797,0.026955,0.118004,-0.006071,0.429716,1.222122,-0.041668,1.968463,5.886955,-0.091005,-8.817271,-23.600541,6.834388,0.123306,-0.043591,0.000000,0.585773,-0.197517,0.000000
0.240000,-1.489812,-2.317803,-1.454860,0.031349,0.130515,-0.006491,0.448955,1.279788,-0.042233,1.878614,5.643810,-0.021716,-9.171502,-25.001298,7.013812,0.129043,-0.045537,0.000000,0.561388,-0.188602,-0.000000
0.250000,-1.489476,-2.316433,-1.454927,0.035931,0.143591,-0.006913,0.467275,1.334955,-0.042097,1.784742,5.387458,0.049073,-9.613151,-26.243118,7.133778,0.134530,-0.047393,0.000000,0.535915,-0.179347,0.000000
0.260000,-1.489093,-2.314930,-1.454998,0.040695,0.157205,-0.007331,0.484499,1.387515,-0.041239,1.673748,5.120976,0.121687,-9.775658,-27.371786,7.168112,0.139760,-0.049142,0.000000,0.509677,-0.168440,0.000000
0.270000,-1.488662,-2.313288,-1.455074,0.045622,0.171332,-0.007736,0.500744,1.437339,-0.039664,1.575076,4.842237,0.193283,-9.961629,-28.351435,7.140727,0.144721,-0.050795,0.000000,0.482405,-0.158817,-0.000000
0.280000,-1.488180,-2.311502,-1.455153,0.050707,0.185942,-0.008122,0.515994,1.484329,-0.037375,1.474479,4.554435,0.264297,-10.158389,-29.184667,7.051938,0.149405,-0.052351,0.000000,0.454424,-0.149047,0.000000
0.290000,-1.487647,-2.309567,-1.455236,0.055939,0.201009,-0.008481,0.530227,1.528402,-0.034382,1.371914,4.259023,0.334118,-10.353263,-29.874087,6.902057,0.153807,-0.053809,0.000000,0.425859,-0.139118,0.000000
0.300000,-1.487061,-2.307480,-1.455322,0.061308,0.216501,-0.008807,0.543426,1.569489,-0.030699,1.267463,3.957424,0.402136,-10.533578,-30.422297,6.691400,0.157921,-0.055166,0.000000,0.396832,-0.129030,0.000000
0.310000,-1.486420,-2.305236,-1.455412,0.066805,0.232388,-0.009093,0.555532,1.607526,-0.026336,1.157706,3.650198,0.468778,-10.595042,-30.810662,6.394179,0.161742,-0.056418,0.000000,0.367392,-0.118439,-0.000000
0.320000,-1.485724,-2.302831,-1.455504,0.072416,0.248641,-0.009332,0.566578,1.642482,-0.021334,1.051567,3.340708,0.530994,-10.627816,-31.065625,6.040006,0.165268,-0.057566,0.000000,0.337796,-0.108214,-0.000000
0.330000,-1.484972,-2.300262,-1.455598,0.078133,0.265228,-0.009518,0.576562,1.674334,-0.015729,0.945250,3.029313,0.589400,-10.630444,-31.192391,5.632390,0.168497,-0.058612,0.000000,0.308072,-0.097972,0.000000
0.340000,-1.484161,-2.297525,-1.455694,0.083944,0.282117,-0.009645,0.585484,1.703067,-0.009560,0.839064,2.717270,0.643476,-10.601469,-31.196163,5.174841,0.171429,-0.059554,0.000000,0.278314,-0.087734,-0.000000
0.350000,-1.483293,-2.294619,-1.455791,0.089839,0.299279,-0.009707,0.593345,1.728681,-0.002875,0.733331,2.405782,0.692742,-10.539435,-31.082147,4.670868,0.174064,-0.060392,0.000000,0.248609,-0.077523,0.000000
0.360000,-1.482364,-2.291539,-1.455888,0.095807,0.316681,-0.009701,0.600143,1.751184,0.004284,0.627451,2.095680,0.737451,-10.419179,-30.847417,4.106273,0.176402,-0.061127,0.000000,0.219022,-0.067275,-0.000000
0.370000,-1.481376,-2.288284,-1.455985,0.101838,0.334292,-0.009621,0.605899,1.770604,0.011854,0.523999,1.788826,0.775534,-10.265854,-30.506302,3.504443,0.178445,-0.061759,0.000000,0.189677,-0.057228,-0.000000
0.380000,-1.480327,-2.284853,-1.456080,0.107922,0.352083,-0.009463,0.610628,1.786974,0.019775,0.422240,1.485888,0.807435,-10.080909,-30.065000,2.871058,0.180196,-0.062291,0.000000,0.160626,-0.047307,-0.000000
0.390000,-1.479218,-2.281242,-1.456174,0.114048,0.370022,-0.009224,0.614350,1.800338,0.027982,0.322482,1.187839,0.832868,-9.865790,-29.529712,2.211795,0.181659,-0.062722,0.000000,0.131940,-0.037536,0.000000
0.400000,-1.478046,-2.277452,-1.456265,0.120206,0.388080,-0.008902,0.617086,1.810750,0.036410,0.225020,0.895587,0.851604,-9.621944,-28.906637,1.532333,0.182837,-0.063054,0.000000,0.103686,-0.027938,-0.000000
0.410000,-1.476813,-2.273480,-1.456352,0.126386,0.406227,-0.008495,0.618857,1.818272,0.044992,0.129955,0.610001,0.863629,-9.346293,-28.202555,0.834256,0.183734,-0.063290,0.000000,0.075934,-0.018520,0.000000
0.420000,-1.475519,-2.269327,-1.456434,0.132580,0.424436,-0.008002,0.619694,1.822975,0.053659,0.037976,0.331813,0.868444,-9.045363,-27.423014,0.127839,0.184357,-0.063432,0.000000,0.048733,-0.009347,-0.000000
0.430000,-1.474162,-2.264992,-1.456511,0.138777,0.442677,-0.007422,0.619627,1.824936,0.062338,-0.050875,0.061772,0.866178,-8.721156,-26.574141,-0.580738,0.184711,-0.063481,0.000000,0.022149,-0.000420,-0.000000
0.440000,-1.472743,-2.260474,-1.456582,0.144969,0.460925,-0.006756,0.618688,1.824240,0.070959,-0.136376,-0.199459,0.856842,-8.375671,-25.662066,-1.285295,0.184802,-0.063441,0.000000,-0.003762,0.008237,0.000000
0.450000,-1.471263,-2.255773,-1.456646,0.151148,0.479154,-0.006003,0.616911,1.820978,0.079451,-0.218324,-0.451279,0.840507,-8.010911,-24.692915,-1.979654,0.184638,-0.063315,0.000000,-0.028943,0.016606,-0.000000
0.460000,-1.469720,-2.250891,-1.456702,0.157305,0.497337,-0.005167,0.614334,1.815249,0.087742,-0.296526,-0.693017,0.816938,-7.629157,-23.676125,-2.648380,0.184226,-0.063105,0.000000,-0.053335,0.024665,-0.000000
0.470000,-1.468117,-2.245827,-1.456749,0.163432,0.515451,-0.004249,0.610994,1.807152,0.095768,-0.370844,-0.924503,0.787197,-7.232095,-22.614112,-3.295681,0.183574,-0.062814,0.000000,-0.076901,0.032394,-0.000000
0.480000,-1.466452,-2.240582,-1.456787,0.169522,0.533472,-0.003253,0.606931,1.796795,0.103465,-0.441123,-1.145167,0.751112,-6.821692,-21.512599,-3.916507,0.182691,-0.062447,0.000000,-0.099586,0.039776,0.000000
0.490000,-1.464726,-2.235158,-1.456814,0.175569,0.551379,-0.002181,0.602185,1.784286,0.110770,-0.507240,-1.354643,0.708972,-6.399914,-20.377309,-4.505813,0.181586,-0.062006,0.000000,-0.121343,0.046793,-0.000000
0.500000,-1.462941,-2.229555,-1.456830,0.181564,0.569151,-0.001039,0.596800,1.769740,0.117625,-0.569090,-1.552620,0.661118,-5.968728,-19.213967,-5.058551,0.180267,-0.061497,0.000000,-0.142126,0.053429,-0.000000
0.510000,-1.461095,-2.223775,-1.456835,0.187503,0.586768,0.000170,0.590819,1.753275,0.123967,-0.626527,-1.738654,0.607209,-5.531675,-18.033190,-5.551224,0.178747,-0.060921,0.000000,-0.161889,0.059668,0.000000
0.520000,-1.459191,-2.217820,-1.456827,0.193378,0.604211,0.001439,0.584284,1.735007,0.129754,-0.679634,-1.913008,0.549418,-5.088954,-16.835207,-5.999493,0.177033,-0.060285,0.000000,-0.180607,0.065500,-0.000000
0.530000,-1.457228,-2.211691,-1.456806,0.199186,0.621462,0.002763,0.577241,1.715055,0.134941,-0.728293,-2.075318,0.487377,-4.642340,-15.625142,-6.400573,0.175138,-0.059592,0.000000,-0.198240,0.070912,0.000000
0.540000,-1.455207,-2.205391,-1.456771,0.204922,0.638507,0.004135,0.569733,1.693541,0.139489,-0.772474,-2.225488,0.421573,-4.193607,-14.408120,-6.751673,0.173072,-0.058846,0.000000,-0.214755,0.075893,-0.000000
0.550000,-1.453130,-2.198922,-1.456723,0.210580,0.655328,0.005550,0.561806,1.670586,0.143362,-0.812164,-2.363474,0.352519,-3.744528,-13.189264,-7.050007,0.170847,-0.058053,0.000000,-0.230126,0.080434,0.000000
0.560000,-1.450996,-2.192286,-1.456660,0.216157,0.671914,0.007001,0.553506,1.646315,0.146521,-0.847273,-2.488997,0.279898,-3.299321,-11.980930,-7.271076,0.168474,-0.057216,0.000000,-0.244316,0.084524,-0.000000
0.570000,-1.448807,-2.185485,-1.456583,0.221649,0.688251,0.008479,0.544876,1.620846,0.148953,-0.878051,-2.602795,0.206314,-2.857017,-10.780125,-7.436461,0.165964,-0.056340,0.000000,-0.257342,0.088169,-0.000000
0.580000,-1.446563,-2.178522,-1.456491,0.227053,0.704327,0.009977,0.535960,1.594299,0.150642,-0.904428,-2.704639,0.131355,-2.419092,-9.591088,-7.546033,0.163331,-0.055429,0.000000,-0.269174,0.091360,-0.000000
0.590000,-1.444266,-2.171399,-1.456383,0.232367,0.720133,0.011489,0.526802,1.566793,0.151578,-0.926453,-2.794670,0.055580,-1.987019,-8.418057,-7.599663,0.160585,-0.054489,0.000000,-0.279805,0.094098,-0.000000
0.600000,-1.441916,-2.164120,-1.456261,0.237589,0.735660,0.013006,0.517445,1.538444,0.151753,-0.944192,-2.873068,-0.020451,-1.562273,-7.265270,-7.597222,0.157739,-0.053524,0.000000,-0.289234,0.096382,-0.000000
0.610000,-1.439515,-2.156687,-1.456123,0.242715,0.750900,0.014522,0.507933,1.509374,0.151161,-0.957595,-2.939668,-0.096938,-1.149680,-6.146799,-7.519354,0.154804,-0.052539,0.000000,-0.297437,0.098206,-0.000000
0.620000,-1.437062,-2.149103,-1.455970,0.247747,0.765845,0.016027,0.498307,1.479688,0.149818,-0.967069,-2.995657,-0.171517,-0.746953,-5.055846,-7.387511,0.151794,-0.051538,0.000000,-0.304488,0.099598,0.000000
0.630000,-1.434560,-2.141371,-1.455803,0.252681,0.780492,0.017516,0.488605,1.449496,0.147736,-0.972570,-3.040886,-0.244516,-0.355158,-3.995445,-7.203917,0.148719,-0.050525,0.000000,-0.310370,0.100554,-0.000000
0.640000,-1.432009,-2.133494,-1.455620,0.257519,0.794834,0.018979,0.478868,1.418905,0.144935,-0.974212,-3.075677,-0.315430,0.024643,-2.968631,-6.970797,0.145590,-0.049506,0.000000,-0.315105,0.101083,0.000000
0.650000,-1.429410,-2.125475,-1.455423,0.262259,0.808869,0.020412,0.469133,1.388016,0.141436,-0.972121,-3.100381,-0.383774,0.391383,-1.978439,-6.690375,0.142420,-0.048483,0.000000,-0.318717,0.101195,0.000000
0.660000,-1.426764,-2.117318,-1.455212,0.266901,0.822594,0.021806,0.459439,1.356935,0.137264,-0.966274,-3.114926,-0.449588,0.740020,-1.039340,-6.352224,0.139220,-0.047463,0.000000,-0.321197,0.100889,0.000000
0.670000,-1.424072,-2.109024,-1.454987,0.271448,0.836007,0.023155,0.449819,1.325749,0.132456,-0.957192,-3.120795,-0.511246,1.073956,-0.141532,-5.972772,0.136000,-0.046447,0.000000,-0.322674,0.100212,0.000000
0.680000,-1.421335,-2.100598,-1.454749,0.275898,0.849108,0.024453,0.440306,1.294548,0.127052,-0.944846,-3.117899,-0.568918,1.392614,0.713353,-5.555790,0.132770,-0.045441,0.000000,-0.323142,0.099163,-0.000000
0.690000,-1.418555,-2.092043,-1.454498,0.280254,0.861898,0.025694,0.430933,1.263418,0.121092,-0.929392,-3.106676,-0.622249,1.695415,1.523678,-5.105054,0.129540,-0.044448,0.000000,-0.322646,0.097759,0.000000
0.700000,-1.415731,-2.083362,-1.454235,0.284517,0.874377,0.026873,0.421728,1.232441,0.114623,-0.910993,-3.087580,-0.670920,1.981784,2.287812,-4.624337,0.126320,-0.043470,0.000000,-0.321231,0.096017,-0.000000
0.710000,-1.412865,-2.074557,-1.453961,0.288689,0.886548,0.027985,0.412724,1.201696,0.107689,-0.889656,-3.060639,-0.714821,2.247163,2.992979,-4.113051,0.123119,-0.042513,0.000000,-0.318905,0.093941,0.000000
0.720000,-1.409957,-2.065632,-1.453676,0.292773,0.898412,0.029026,0.403944,1.171251,0.100344,-0.865929,-3.027383,-0.753302,2.495441,3.650050,-3.579868,0.119945,-0.041578,0.000000,-0.315822,0.091587,0.000000
0.730000,-1.407009,-2.056589,-1.453381,0.296769,0.909974,0.029991,0.395413,1.141170,0.092641,-0.839804,-2.987799,-0.786360,2.726531,4.258754,-3.029093,0.116805,-0.040669,0.000000,-0.311988,0.088957,0.000000
0.740000,-1.404022,-2.047433,-1.453076,0.300682,0.921237,0.030878,0.387155,1.111514,0.084635,-0.811456,-2.942370,-0.813840,2.940341,4.818821,-2.465036,0.113707,-0.039788,0.000000,-0.307459,0.086072,0.000000
0.750000,-1.400996,-2.038166,-1.452763,0.304513,0.932206,0.031683,0.379191,1.082340,0.076383,-0.781055,-2.891585,-0.835631,3.136782,5.329981,-1.892005,0.110658,-0.038937,0.000000,-0.302292,0.082950,-0.000000
0.760000,-1.397932,-2.028790,-1.452443,0.308267,0.942885,0.032405,0.371542,1.053703,0.067943,-0.748646,-2.835579,-0.851531,3.312441,5.782987,-1.317669,0.107664,-0.038119,0.000000,-0.296508,0.079600,-0.000000
0.770000,-1.394831,-2.019309,-1.452116,0.311945,0.953282,0.033041,0.364224,1.025643,0.059371,-0.714715,-2.775686,-0.861832,3.470959,6.187645,-0.742564,0.104729,-0.037336,0.000000,-0.290252,0.076075,-0.000000
0.780000,-1.391693,-2.009725,-1.451782,0.315552,0.963400,0.033592,0.357252,0.998202,0.050726,-0.679283,-2.711985,-0.866393,3.612653,6.544784,-0.170584,0.101860,-0.036590,0.000000,-0.283542,0.072379,0.000000
0.790000,-1.388520,-2.000042,-1.451444,0.319091,0.973248,0.034056,0.350642,0.971414,0.042063,-0.642517,-2.644946,-0.865267,3.737841,6.855234,0.394372,0.099060,-0.035882,0.000000,-0.276432,0.068532,-0.000000
0.800000,-1.385312,-1.990261,-1.451102,0.322566,0.982831,0.034433,0.344406,0.945312,0.033439,-0.604581,-2.575033,-0.858542,3.846840,7.119823,0.948408,0.096333,-0.035213,0.000000,-0.268979,0.064552,0.000000
0.810000,-1.382069,-1.980386,-1.450756,0.325981,0.992156,0.034725,0.338555,0.919924,0.024914,-0.565547,-2.502476,-0.845995,3.937786,7.333725,1.478728,0.093682,-0.034585,0.000000,-0.261211,0.060449,0.000000
0.820000,-1.378792,-1.970419,-1.450407,0.329339,1.001232,0.034932,0.333098,0.895269,0.016536,-0.525778,-2.428251,-0.828629,4.013445,7.504117,1.991426,0.091109,-0.033999,0.000000,-0.253244,0.056265,-0.000000
0.830000,-1.375482,-1.960362,-1.450057,0.332644,1.010064,0.035056,0.328042,0.871364,0.008358,-0.485327,-2.352533,-0.806235,4.074402,7.632521,2.483695,0.088617,-0.033456,0.000000,-0.245098,0.052004,-0.000000
0.840000,-1.372140,-1.950218,-1.449707,0.335901,1.018662,0.035100,0.323393,0.848222,0.000428,-0.444337,-2.275735,-0.779032,4.121242,7.720459,2.952727,0.086208,-0.032955,0.000000,-0.236823,0.047685,-0.000000
0.850000,-1.368764,-1.939990,-1.449356,0.339113,1.027031,0.035066,0.319156,0.825852,-0.007208,-0.402947,-2.198254,-0.747267,4.154548,7.769452,3.395718,0.083881,-0.032498,0.000000,-0.228466,0.043321,-0.000000
0.860000,-1.365357,-1.929679,-1.449005,0.342285,1.035181,0.034957,0.315335,0.804259,-0.014498,-0.361255,-2.120384,-0.710757,4.174038,7.778819,3.798300,0.081639,-0.032086,0.000000,-0.220059,0.038923,-0.000000
0.870000,-1.361919,-1.919287,-1.448657,0.345421,1.043119,0.034777,0.311932,0.783444,-0.021410,-0.319469,-2.042698,-0.670886,4.181270,7.752554,4.170642,0.079480,-0.031717,0.000000,-0.211673,0.034516,0.000000
0.880000,-1.358449,-1.908817,-1.448310,0.348525,1.050853,0.034530,0.308946,0.763403,-0.027904,-0.277668,-1.965445,-0.627449,4.176935,7.692450,4.511352,0.077405,-0.031393,0.000000,-0.203334,0.030107,-0.000000
0.890000,-1.354948,-1.898270,-1.447966,0.351602,1.058390,0.034220,0.306378,0.744132,-0.033948,-0.235966,-1.888956,-0.580769,4.161724,7.600298,4.819040,0.075413,-0.031113,0.000000,-0.195081,0.025709,0.000000
0.900000,-1.351417,-1.887650,-1.447626,0.354654,1.065738,0.033853,0.304226,0.725621,-0.039510,-0.194468,-1.813540,-0.531183,4.136326,7.477891,5.092313,0.073503,-0.030878,0.000000,-0.186946,0.021332,-0.000000
0.910000,-1.347855,-1.876956,-1.447289,0.357688,1.072905,0.033432,0.302488,0.707857,-0.044558,-0.153281,-1.739509,-0.478588,4.101675,7.327441,5.318307,0.071674,-0.030686,0.000000,-0.178962,0.016985,0.000000
0.920000,-1.344263,-1.866192,-1.446957,0.360706,1.079897,0.032963,0.301159,0.690825,-0.049075,-0.112475,-1.667099,-0.424424,4.058190,7.150267,5.508508,0.069923,-0.030537,0.000000,-0.171162,0.012680,0.000000
0.930000,-1.340641,-1.855359,-1.446630,0.363712,1.086723,0.032452,0.300236,0.674508,-0.053041,-0.072144,-1.596587,-0.368537,4.006533,6.948109,5.662932,0.068250,-0.030431,0.000000,-0.163573,0.008425,-0.000000
0.940000,-1.336989,-1.844458,-1.446309,0.366712,1.093390,0.031904,0.299714,0.658886,-0.056441,-0.032369,-1.528215,-0.311285,3.947363,6.722706,5.781593,0.066651,-0.030368,0.000000,-0.156220,0.004226,0.000000
0.950000,-1.333307,-1.833492,-1.445992,0.369708,1.099903,0.031325,0.299587,0.643936,-0.059263,0.006780,-1.462205,-0.253024,3.881344,6.475800,5.864503,0.065124,-0.030346,0.000000,-0.149127,0.000091,0.000000
0.960000,-1.329595,-1.822461,-1.445682,0.372705,1.106271,0.030721,0.299847,0.629633,-0.061495,0.045199,-1.398837,-0.193745,3.810112,6.210954,5.902360,0.063667,-0.030366,0.000000,-0.142320,-0.003971,0.000000
0.970000,-1.325853,-1.811367,-1.445378,0.375706,1.112498,0.030097,0.300488,0.615950,-0.063137,0.082920,-1.338128,-0.134676,3.733233,5.927860,5.905636,0.062277,-0.030426,0.000000,-0.135807,-0.007961,-0.000000
0.980000,-1.322081,-1.800211,-1.445080,0.378716,1.118592,0.029460,0.301503,0.602860,-0.064189,0.119846,-1.280335,-0.075743,3.651248,5.628036,5.875485,0.060950,-0.030525,0.000000,-0.129612,-0.011870,0.000000
0.990000,-1.318279,-1.788995,-1.444789,0.381737,1.124557,0.028815,0.302883,0.590333,-0.064654,0.155930,-1.225618,-0.017274,3.564698,5.312998,5.813063,0.059684,-0.030663,0.000000,-0.123751,-0.015694,0.000000
1.000000,-1.314446,-1.777720,-1.444504,0.384774,1.130400,0.028169,0.304619,0.578337,-0.064537,0.191127,-1.174121,0.040414,3.474124,4.984262,5.719525,0.058474,-0.030839,0.000000,-0.118238,-0.019430,0.000000
1.010000,-1.310583,-1.766388,-1.444225,0.387831,1.136126,0.027526,0.306701,0.566839,-0.063847,0.225349,-1.126055,0.097253,3.381368,4.645409,5.590046,0.057318,-0.031052,0.000000,-0.113093,-0.023069,-0.000000
1.020000,-1.306689,-1.754998,-1.443953,0.390910,1.141739,0.026894,0.309122,0.555805,-0.062597,0.258686,-1.081341,0.152388,3.285513,4.295639,5.432493,0.056211,-0.031301,0.000000,-0.108311,-0.026617,0.000000
1.030000,-1.302765,-1.743553,-1.443688,0.394014,1.147243,0.026276,0.311872,0.545200,-0.060804,0.291050,-1.040175,0.205816,3.186940,3.936218,5.248752,0.055150,-0.031585,0.000000,-0.103911,-0.030069,-0.000000
1.040000,-1.298809,-1.732054,-1.443428,0.397148,1.152644,0.025679,0.314940,0.534989,-0.058487,0.322417,-1.002645,0.257282,3.086031,3.568409,5.040710,0.054131,-0.031903,0.000000,-0.099901,-0.033420,-0.000000
1.050000,-1.294822,-1.720501,-1.443174,0.400314,1.157944,0.025108,0.318317,0.525135,-0.055666,0.352764,-0.968830,0.306555,2.983170,3.193476,4.810254,0.053151,-0.032254,0.000000,-0.096289,-0.036669,-0.000000
1.060000,-1.290803,-1.708895,-1.442926,0.403515,1.163148,0.024567,0.321991,0.515599,-0.052363,0.382024,-0.938857,0.353511,2.880021,2.814242,4.556959,0.052204,-0.032637,0.000000,-0.093086,-0.039809,-0.000000
1.070000,-1.286751,-1.697238,-1.442682,0.406755,1.168257,0.024062,0.325954,0.506345,-0.048605,0.410303,-0.912631,0.397736,2.775527,2.430222,4.285307,0.051288,-0.033051,0.000000,-0.090285,-0.042849,0.000000
1.080000,-1.282667,-1.685530,-1.442444,0.410035,1.173275,0.023597,0.330194,0.497334,-0.044418,0.437531,-0.890265,0.439163,2.669912,2.042490,3.997468,0.050397,-0.033495,0.000000,-0.087897,-0.045783,0.000000
1.090000,-1.278550,-1.673773,-1.442210,0.413360,1.178204,0.023175,0.334701,0.488527,-0.039831,0.463698,-0.871790,0.477639,2.563403,1.652120,3.695611,0.049528,-0.033967,0.000000,-0.085924,-0.048609,0.000000
1.100000,-1.274400,-1.661967,-1.441980,0.416730,1.183046,0.022801,0.339464,0.479885,-0.034875,0.488797,-0.857227,0.513035,2.456224,1.260185,3.381907,0.048677,-0.034468,0.000000,-0.084369,-0.051325,0.000000
1.110000,-1.270216,-1.650112,-1.441754,0.420150,1.187803,0.022479,0.344473,0.471369,-0.029582,0.512780,-0.846621,0.545205,2.349653,0.868601,3.059527,0.047840,-0.034995,0.000000,-0.083237,-0.053926,0.000000
1.120000,-1.265997,-1.638211,-1.441531,0.423621,1.192474,0.022211,0.349716,0.462940,-0.023982,0.535742,-0.839891,0.574156,2.242734,0.477496,2.729517,0.047011,-0.035547,0.000000,-0.082518,-0.056421,0.000000
1.130000,-1.261743,-1.626263,-1.441310,0.427145,1.197062,0.022000,0.355184,0.454558,-0.018110,0.557633,-0.837066,0.599777,2.135564,0.087841,2.393924,0.046188,-0.036124,0.000000,-0.082217,-0.058804,0.000000
1.140000,-1.257454,-1.614270,-1.441091,0.430725,1.201565,0.021849,0.360865,0.446185,-0.011998,0.578453,-0.838126,0.622023,2.028240,-0.299394,2.054796,0.045365,-0.036724,0.000000,-0.082331,-0.061075,-0.000000
1.150000,-1.253128,-1.602232,-1.440873,0.434363,1.205985,0.021761,0.366750,0.437783,-0.005681,0.598198,-0.843043,0.640868,1.920857,-0.683237,1.714180,0.044540,-0.037346,0.000000,-0.082858,-0.063231,-0.000000
1.160000,-1.248766,-1.590150,-1.440655,0.438061,1.210321,0.021736,0.372826,0.429312,0.000807,0.616842,-0.851790,0.656170,1.814206,-1.062391,1.377617,0.043707,-0.037989,0.000000,-0.083796,-0.065270,-0.000000
1.170000,-1.244367,-1.578026,-1.440438,0.441820,1.214571,0.021778,0.379083,0.420734,0.007432,0.634451,-0.864288,0.668271,1.707605,-1.436252,1.043233,0.042862,-0.038653,0.000000,-0.085135,-0.067197,0.000000
1.180000,-1.239930,-1.565859,-1.440219,0.445643,1.218735,0.021885,0.385511,0.412013,0.014161,0.650995,-0.880494,0.677047,1.601066,-1.803891,0.712647,0.042003,-0.039334,0.000000,-0.086871,-0.069008,0.000000
1.190000,-1.235454,-1.553651,-1.440000,0.449531,1.222811,0.022061,0.392099,0.403112,0.020962,0.666473,-0.900342,0.682542,1.494601,-2.164377,0.387478,0.041124,-0.040034,0.000000,-0.088998,-0.070703,0.000000
1.200000,-1.230939,-1.541403,-1.439778,0.453485,1.226796,0.022305,0.398837,0.393995,0.027801,0.680887,-0.923754,0.684820,1.388223,-2.516779,0.069346,0.040222,-0.040749,0.000000,-0.091507,-0.072280,0.000000
1.210000,-1.226384,-1.529116,-1.439553,0.457508,1.230690,0.022617,0.405713,0.384625,0.034646,0.694224,-0.950659,0.683763,1.282284,-2.859876,-0.235196,0.039292,-0.041480,0.000000,-0.094392,-0.073737,0.000000
1.220000,-1.221789,-1.516790,-1.439325,0.461600,1.234488,0.022998,0.412718,0.374970,0.041466,0.706518,-0.980932,0.679928,1.176412,-3.193063,-0.530067,0.038333,-0.042225,0.000000,-0.097637,-0.075077,-0.000000
1.230000,-1.217152,-1.504426,-1.439093,0.465763,1.238188,0.023446,0.419840,0.364996,0.048234,0.717753,-1.014484,0.673197,1.070579,-3.515447,-0.814250,0.037338,-0.042982,0.000000,-0.101233,-0.076298,0.000000
1.240000,-1.212473,-1.492026,-1.438856,0.469997,1.241787,0.023962,0.427069,0.354670,0.054921,0.727929,-1.051202,0.663682,0.964753,-3.826133,-1.086732,0.036307,-0.043751,0.000000,-0.105170,-0.077400,-0.000000
1.250000,-1.207752,-1.479591,-1.438614,0.474304,1.245280,0.024544,0.434395,0.343962,0.061499,0.737048,-1.090965,0.651505,0.858905,-4.124226,-1.346496,0.035234,-0.044531,0.000000,-0.109432,-0.078380,0.000000
1.260000,-1.202987,-1.467121,-1.438365,0.478685,1.248665,0.025192,0.441807,0.332841,0.067940,0.745106,-1.133670,0.636589,0.753027,-4.408111,-1.587244,0.034117,-0.045319,0.000000,-0.114009,-0.079238,-0.000000
1.270000,-1.198178,-1.454618,-1.438110,0.483141,1.251936,0.025903,0.449294,0.321279,0.074223,0.752107,-1.179111,0.619571,0.647064,-4.677701,-1.813890,0.032953,-0.046116,0.000000,-0.118877,-0.079975,-0.000000
1.280000,-1.193324,-1.442083,-1.437847,0.487672,1.255089,0.026676,0.456845,0.309250,0.080325,0.758047,-1.227174,0.600359,0.540984,-4.932191,-2.026067,0.031739,-0.046919,0.000000,-0.124024,-0.080590,-0.000000
1.290000,-1.188424,-1.429517,-1.437576,0.492278,1.258119,0.027508,0.464451,0.296727,0.086224,0.762926,-1.277702,0.579099,0.434752,-5.170773,-2.223408,0.030471,-0.047728,0.000000,-0.129433,-0.081082,0.000000
1.300000,-1.183478,-1.416921,-1.437296,0.496961,1.261021,0.028399,0.472100,0.283688,0.091900,0.766742,-1.330533,0.555942,0.328337,-5.392641,-2.405542,0.029149,-0.048541,0.000000,-0.135084,-0.081450,0.000000
1.310000,-1.178484,-1.404297,-1.437008,0.501720,1.263791,0.029346,0.479783,0.270109,0.097335,0.769504,-1.385554,0.530856,0.221396,-5.595543,-2.567437,0.027769,-0.049358,0.000000,-0.140966,-0.081696,0.000000
1.320000,-1.173443,-1.391646,-1.436709,0.506556,1.266422,0.030345,0.487487,0.255970,0.102512,0.771183,-1.442448,0.504436,0.114242,-5.780294,-2.713962,0.026329,-0.050175,0.000000,-0.147042,-0.081817,0.000000
1.330000,-1.168353,-1.378969,-1.436401,0.511470,1.268908,0.031395,0.495203,0.241254,0.107419,0.771789,-1.501097,0.476627,0.006883,-5.946265,-2.845319,0.024828,-0.050994,0.000000,-0.153299,-0.081813,0.000000
1.340000,-1.163214,-1.366268,-1.436081,0.516460,1.271245,0.032493,0.502919,0.225943,0.112041,0.771320,-1.561309,0.447579,-0.100677,-6.092827,-2.961712,0.023263,-0.051812,0.000000,-0.159716,-0.081686,-0.000000
1.350000,-1.158024,-1.353544,-1.435751,0.521528,1.273425,0.033635,0.510626,0.210023,0.116367,0.769774,-1.622887,0.417442,-0.208432,-6.219350,-3.063343,0.021633,-0.052628,0.000000,-0.166269,-0.081434,0.000000
1.360000,-1.152783,-1.340800,-1.435408,0.526673,1.275443,0.034819,0.518311,0.193481,0.120385,0.767176,-1.685716,0.386229,-0.317027,-6.322964,-3.147082,0.019937,-0.053440,0.000000,-0.172946,-0.081059,-0.000000
1.370000,-1.147490,-1.328036,-1.435054,0.531894,1.277293,0.036042,0.525965,0.176306,0.124089,0.763462,-1.749376,0.354398,-0.425728,-6.405555,-3.216874,0.018174,-0.054249,0.000000,-0.179700,-0.080558,-0.000000
1.380000,-1.142145,-1.315255,-1.434688,0.537192,1.278967,0.037300,0.533577,0.158491,0.127471,0.758661,-1.813756,0.321936,-0.534450,-6.466766,-3.273332,0.016342,-0.055052,0.000000,-0.186517,-0.079932,-0.000000
1.390000,-1.136746,-1.302457,-1.434308,0.542566,1.280460,0.038590,0.541135,0.140029,0.130526,0.752774,-1.878639,0.288974,-0.643108,-6.506244,-3.317065,0.014443,-0.055847,0.000000,-0.193375,-0.079183,-0.000000
1.400000,-1.131293,-1.289646,-1.433916,0.548015,1.281766,0.039909,0.548629,0.120917,0.133249,0.745800,-1.943807,0.255635,-0.751619,-6.523634,-3.348686,0.012475,-0.056635,0.000000,-0.200247,-0.078311,0.000000
1.410000,-1.125785,-1.276823,-1.433510,0.553538,1.282877,0.041254,0.556048,0.101152,0.135637,0.737783,-2.009152,0.221975,-0.860927,-6.515670,-3.367207,0.010438,-0.057413,0.000000,-0.207120,-0.077321,0.000000
1.420000,-1.120222,-1.263989,-1.433090,0.559135,1.283787,0.042621,0.563381,0.080735,0.137688,0.728629,-2.074175,0.188255,-0.969791,-6.485263,-3.375034,0.008333,-0.058181,0.000000,-0.213942,-0.076204,0.000000
1.430000,-1.114602,-1.251148,-1.432657,0.564805,1.284489,0.044006,0.570617,0.059669,0.139402,0.718389,-2.138782,0.154507,-1.078001,-6.432415,-3.372975,0.006159,-0.058937,0.000000,-0.220700,-0.074966,0.000000
1.440000,-1.108926,-1.238300,-1.432210,0.570547,1.284978,0.045408,0.577745,0.037961,0.140778,0.707072,-2.202749,0.120826,-1.185346,-6.357126,-3.361837,0.003919,-0.059680,0.000000,-0.227370,-0.073609,-0.000000
1.450000,-1.103191,-1.225449,-1.431749,0.576360,1.285246,0.046821,0.584755,0.015617,0.141819,0.694686,-2.265850,0.087298,-1.291615,-6.259398,-3.342428,0.001612,-0.060409,0.000000,-0.233926,-0.072135,0.000000
1.460000,-1.097398,-1.212596,-1.431274,0.582242,1.285288,0.048243,0.591636,-0.007354,0.142525,0.681302,-2.327995,0.054011,-1.398081,-6.135876,-3.315789,-0.000759,-0.061122,0.000000,-0.240358,-0.070551,-0.000000
1.470000,-1.091546,-1.199744,-1.430784,0.588192,1.285097,0.049670,0.598377,-0.030938,0.142900,0.666796,-2.388644,0.021015,-1.502867,-5.990328,-3.282465,-0.003194,-0.061819,0.000000,-0.246609,-0.068846,0.000000
1.480000,-1.085634,-1.186895,-1.430280,0.594209,1.284667,0.051100,0.604968,-0.055121,0.142947,0.651252,-2.447729,-0.011618,-1.605582,-5.823167,-3.243234,-0.005691,-0.062499,0.000000,-0.252670,-0.067029,0.000000
1.490000,-1.079662,-1.174051,-1.429762,0.600291,1.283993,0.052528,0.611399,-0.079887,0.142669,0.634693,-2.505037,-0.043833,-1.705832,-5.634803,-3.198875,-0.008247,-0.063160,0.000000,-0.258518,-0.065104,-0.000000
1.500000,-1.073628,-1.161216,-1.429230,0.606436,1.283068,0.053952,0.617659,-0.105215,0.142072,0.617145,-2.560356,-0.075581,-1.803225,-5.425649,-3.150166,-0.010860,-0.063801,0.000000,-0.264131,-0.063074,0.000000
1.510000,-1.067533,-1.148391,-1.428683,0.612643,1.281887,0.055368,0.623739,-0.131088,0.141160,0.598711,-2.613617,-0.106751,-1.899200,-5.192701,-3.099734,-0.013529,-0.064421,0.000000,-0.269501,-0.060950,-0.000000
1.520000,-1.061375,-1.135579,-1.428123,0.618910,1.280444,0.056774,0.629630,-0.157480,0.139938,0.579255,-2.664297,-0.137483,-1.991309,-4.940206,-3.046283,-0.016249,-0.065019,0.000000,-0.274572,-0.058719,0.000000
1.530000,-1.055154,-1.122783,-1.427548,0.625235,1.278736,0.058166,0.635321,-0.184365,0.138412,0.558900,-2.712359,-0.167668,-2.078935,-4.668993,-2.990367,-0.019019,-0.065595,0.000000,-0.279342,-0.056395,0.000000
1.540000,-1.048870,-1.110005,-1.426959,0.631616,1.276756,0.059541,0.640805,-0.211717,0.136587,0.537694,-2.757618,-0.197284,-2.161462,-4.379893,-2.932538,-0.021835,-0.066147,0.000000,-0.283790,-0.053984,-0.000000
1.550000,-1.042522,-1.097249,-1.426357,0.638051,1.274500,0.060897,0.646073,-0.239508,0.134468,0.515690,-2.799900,-0.226315,-2.238272,-4.073737,-2.873348,-0.024694,-0.066675,0.000000,-0.287898,-0.051491,-0.000000
1.560000,-1.036109,-1.084516,-1.425741,0.644537,1.271964,0.062230,0.651117,-0.267706,0.132064,0.492998,-2.839149,-0.254642,-2.309985,-3.748572,-2.816046,-0.027592,-0.067177,0.000000,-0.291662,-0.048930,-0.000000
1.570000,-1.029631,-1.071810,-1.425113,0.651072,1.269144,0.063537,0.655930,-0.296279,0.129377,0.469569,-2.874945,-0.282513,-2.374597,-3.408352,-2.758158,-0.030526,-0.067654,0.000000,-0.295038,-0.046295,-0.000000
1.580000,-1.023087,-1.059134,-1.424471,0.657655,1.266037,0.064816,0.660506,-0.325194,0.126415,0.445533,-2.907269,-0.309804,-2.431339,-3.054248,-2.699907,-0.033492,-0.068103,0.000000,-0.298024,-0.043599,-0.000000
1.590000,-1.016478,-1.046491,-1.423816,0.664282,1.262640,0.066065,0.664839,-0.354413,0.123183,0.420971,-2.935988,-0.336511,-2.479445,-2.687430,-2.641516,-0.036485,-0.068526,0.000000,-0.300609,-0.040854,-0.000000
1.600000,-1.009802,-1.033882,-1.423150,0.670951,1.258948,0.067279,0.668924,-0.383901,0.119687,0.395975,-2.960979,-0.362634,-2.518144,-2.309069,-2.583206,-0.039502,-0.068921,0.000000,-0.302779,-0.038068,0.000000
1.610000,-1.003059,-1.021313,-1.422471,0.677659,1.254961,0.068458,0.672757,-0.413620,0.115934,0.370616,-2.982190,-0.388079,-2.546004,-1.918945,-2.527654,-0.042539,-0.069288,0.000000,-0.304532,-0.035251,-0.000000
1.620000,-0.996248,-1.008784,-1.421781,0.684405,1.250675,0.069597,0.676336,-0.443531,0.111927,0.345061,-2.999390,-0.413079,-2.563004,-1.519791,-2.472327,-0.045592,-0.069626,0.000000,-0.305844,-0.032418,0.000000
1.630000,-0.989370,-0.996300,-1.421079,0.691185,1.246090,0.070695,0.679658,-0.473595,0.107674,0.319394,-3.012560,-0.437526,-2.568457,-1.112949,-2.417149,-0.048655,-0.069937,0.000000,-0.306716,-0.029580,-0.000000
1.640000,-0.982424,-0.983863,-1.420367,0.697997,1.241203,0.071750,0.682724,-0.503769,0.103179,0.293733,-3.021628,-0.461422,-2.561677,-0.699759,-2.362040,-0.051724,-0.070219,0.000000,-0.307140,-0.026749,0.000000
1.650000,-0.975410,-0.971477,-1.419644,0.704839,1.236014,0.072758,0.685533,-0.534013,0.098447,0.268204,-3.026538,-0.484767,-2.541978,-0.281564,-2.306923,-0.054796,-0.070473,0.000000,-0.307115,-0.023938,-0.000000
1.660000,-0.968328,-0.959144,-1.418912,0.711707,1.230522,0.073718,0.688088,-0.564286,0.093486,0.242831,-3.027238,-0.507497,-2.505946,0.140075,-2.253301,-0.057865,-0.070698,0.000000,-0.306636,-0.021151,0.000000
1.670000,-0.961176,-0.946868,-1.418170,0.718600,1.224728,0.074627,0.690391,-0.594544,0.088299,0.218010,-3.023719,-0.529761,-2.455956,0.564064,-2.199321,-0.060927,-0.070896,0.000000,-0.305705,-0.018428,0.000000
1.680000,-0.953956,-0.934650,-1.417419,0.725514,1.218632,0.075483,0.692450,-0.624746,0.082893,0.193760,-3.015954,-0.551482,-2.391654,0.989089,-2.144711,-0.063978,-0.071068,0.000000,-0.304321,-0.015771,-0.000000
1.690000,-0.946666,-0.922496,-1.416661,0.732448,1.212234,0.076284,0.694269,-0.654849,0.077271,0.170226,-3.003938,-0.572652,-2.312687,1.413835,-2.089200,-0.067012,-0.071213,0.000000,-0.302486,-0.013196,0.000000
1.700000,-0.939307,-0.910407,-1.415894,0.739399,1.205535,0.077028,0.695857,-0.684811,0.071441,0.147556,-2.987682,-0.593262,-2.218704,1.836988,-2.032516,-0.070026,-0.071333,0.000000,-0.300205,-0.010718,0.000000
1.710000,-0.931878,-0.898386,-1.415120,0.746364,1.198538,0.077712,0.697222,-0.714588,0.065408,0.125746,-2.967147,-0.613273,-2.105400,2.255681,-1.975012,-0.073015,-0.071428,0.000000,-0.297477,-0.008336,-0.000000
1.720000,-0.924379,-0.886437,-1.414340,0.753342,1.191244,0.078335,0.698376,-0.744140,0.059178,0.105322,-2.942513,-0.632728,-1.976858,2.670343,-1.915716,-0.075974,-0.071500,0.000000,-0.294321,-0.006105,-0.000000
1.730000,-0.916811,-0.874562,-1.413554,0.760331,1.183656,0.078895,0.699333,-0.773424,0.052756,0.086259,-2.913757,-0.651580,-1.833208,3.079848,-1.854279,-0.078900,-0.071551,0.000000,-0.290741,-0.004021,0.000000
1.740000,-0.909173,-0.862765,-1.412762,0.767329,1.175777,0.079390,0.700106,-0.802401,0.046148,0.068708,-2.880937,-0.669805,-1.674581,3.483072,-1.790352,-0.081787,-0.071581,0.000000,-0.286744,-0.002100,-0.000000
1.750000,-0.901464,-0.851048,-1.411966,0.774333,1.167609,0.079818,0.700712,-0.831030,0.039362,0.052817,-2.844120,-0.687378,-1.501109,3.878892,-1.723588,-0.084633,-0.071594,0.000000,-0.282340,-0.000357,-0.000000
1.760000,-0.893686,-0.839414,-1.411166,0.781342,1.159157,0.080177,0.701167,-0.859269,0.032403,0.038567,-2.803293,-0.704276,-1.308674,4.263783,-1.653410,-0.087433,-0.071589,0.000000,-0.277533,0.001210,-0.000000
1.770000,-0.885837,-0.827866,-1.410363,0.788356,1.150425,0.080465,0.701490,-0.887083,0.025279,0.026501,-2.758769,-0.720444,-1.102176,4.639314,-1.579725,-0.090183,-0.071570,0.000000,-0.272356,0.002547,-0.000000
1.780000,-0.877919,-0.816406,-1.409557,0.795372,1.141417,0.080682,0.701704,-0.914433,0.017997,0.016568,-2.710540,-0.735857,-0.882265,5.004654,-1.502214,-0.092879,-0.071539,0.000000,-0.266813,0.003659,-0.000000
1.790000,-0.869930,-0.805038,-1.408749,0.802389,1.132138,0.080825,0.701829,-0.941282,0.010564,0.008898,-2.658713,-0.750475,-0.649593,5.358973,-1.420556,-0.095518,-0.071497,0.000000,-0.260918,0.004533,-0.000000
1.800000,-0.861871,-0.793764,-1.407941,0.809408,1.122594,0.080892,0.701890,-0.967595,0.002990,0.003616,-2.603400,-0.764254,-0.404812,5.701440,-1.334432,-0.098096,-0.071448,0.000000,-0.254687,0.005157,0.000000
1.810000,-0.853742,-0.782587,-1.407132,0.816427,1.112788,0.080884,0.701908,-0.993337,-0.004718,0.000691,-2.544618,-0.777182,-0.144799,6.028486,-1.242639,-0.100610,-0.071394,0.000000,-0.248123,0.005536,0.000000
1.820000,-0.845542,-0.771509,-1.406323,0.823446,1.102729,0.080798,0.701913,-1.018477,-0.012551,0.000587,-2.482752,-0.789129,0.125559,6.342354,-1.145846,-0.103057,-0.071338,0.000000,-0.241270,0.005622,-0.000000
1.830000,-0.837273,-0.760533,-1.405516,0.830465,1.092421,0.080632,0.701929,-1.042982,-0.020498,0.003233,-2.417816,-0.800082,0.405150,6.642548,-1.043840,-0.105435,-0.071282,0.000000,-0.234132,0.005424,-0.000000
1.840000,-0.828933,-0.749662,-1.404711,0.837485,1.081871,0.080387,0.701987,-1.066823,-0.028549,0.008717,-2.349949,-0.809988,0.692860,6.928572,-0.936410,-0.107739,-0.071230,0.000000,-0.226727,0.004934,0.000000
1.850000,-0.820523,-0.738897,-1.403909,0.844505,1.071087,0.080061,0.702113,-1.089972,-0.036694,0.017113,-2.279294,-0.818791,0.987577,7.199932,-0.823343,-0.109968,-0.071184,0.000000,-0.219073,0.004145,-0.000000
1.860000,-0.812043,-0.728241,-1.403110,0.851528,1.060074,0.079653,0.702338,-1.112399,-0.044921,0.028375,-2.205898,-0.826485,1.291044,7.453534,-0.703166,-0.112120,-0.071147,0.000000,-0.211176,0.003063,0.000000
1.870000,-0.803493,-0.717696,-1.402316,0.858553,1.048841,0.079163,0.702691,-1.134082,-0.053219,0.042822,-2.130158,-0.832891,1.598942,7.691799,-0.577082,-0.114191,-0.071123,0.000000,-0.203081,0.001655,-0.000000
1.880000,-0.794872,-0.707265,-1.401527,0.865582,1.037395,0.078589,0.703204,-1.154995,-0.061575,0.060363,-2.052113,-0.838007,1.909808,7.914547,-0.445031,-0.116181,-0.071115,0.000000,-0.194795,-0.000067,-0.000000
1.890000,-0.786181,-0.696949,-1.400744,0.872617,1.025744,0.077931,0.703909,-1.175117,-0.069975,0.081023,-1.971920,-0.841772,2.222179,8.121602,-0.306955,-0.118087,-0.071126,0.000000,-0.186334,-0.002105,0.000000
1.900000,-0.777420,-0.686750,-1.399969,0.879661,1.013896,0.077189,0.704835,-1.194427,-0.078406,0.104807,-1.889734,-0.844125,2.534592,8.312785,-0.162797,-0.119907,-0.071159,0.000000,-0.177719,-0.004459,0.000000
1.910000,-0.768588,-0.676671,-1.399201,0.886715,1.001858,0.076363,0.706015,-1.212904,-0.086853,0.131648,-1.805630,-0.845059,2.847153,8.485720,-0.011177,-0.121640,-0.071217,0.000000,-0.168957,-0.007121,-0.000000
1.920000,-0.759685,-0.666714,-1.398442,0.893782,0.989640,0.075452,0.707479,-1.230534,-0.095302,0.161670,-1.719975,-0.844388,3.156639,8.642698,0.146481,-0.123286,-0.071303,0.000000,-0.160089,-0.010104,-0.000000
1.930000,-0.750712,-0.656879,-1.397692,0.900866,0.977250,0.074457,0.709258,-1.247299,-0.103735,0.194765,-1.632829,-0.842110,3.461394,8.783810,0.310073,-0.124842,-0.071421,0.000000,-0.151123,-0.013395,-0.000000
1.940000,-0.741668,-0.647169,-1.396953,0.907968,0.964697,0.073377,0.711384,-1.263186,-0.112138,0.230877,-1.544351,-0.838167,3.759763,8.909147,0.479496,-0.126308,-0.071574,0.000000,-0.142075,-0.016988,-0.000000
1.950000,-0.732553,-0.637586,-1.396225,0.915095,0.951990,0.072214,0.713886,-1.278182,-0.120493,0.269933,-1.454699,-0.832501,4.050092,9.018801,0.654646,-0.127683,-0.071765,0.000000,-0.132963,-0.020876,-0.000000
1.960000,-0.723366,-0.628130,-1.395509,0.922248,0.939137,0.070968,0.716792,-1.292276,-0.128783,0.311841,-1.363959,-0.825099,4.330866,9.111133,0.836524,-0.128967,-0.071996,0.000000,-0.123796,-0.025048,0.000000
1.970000,-0.714107,-0.618803,-1.394806,0.929432,0.926147,0.069639,0.720132,-1.305458,-0.136989,0.356506,-1.272450,-0.815802,4.600273,9.188177,1.023787,-0.130159,-0.072271,0.000000,-0.114608,-0.029495,-0.000000
1.980000,-0.704777,-0.609607,-1.394116,0.936652,0.913030,0.068228,0.723931,-1.317722,-0.145092,0.403803,-1.180245,-0.804606,4.856641,9.250236,1.216197,-0.131259,-0.072592,0.000000,-0.105406,-0.034206,0.000000
1.990000,-0.695374,-0.600543,-1.393441,0.943912,0.899796,0.066737,0.728216,-1.329061,-0.153074,0.453590,-1.087494,-0.791461,5.098296,9.297613,1.413517,-0.132267,-0.072962,0.000000,-0.096206,-0.039165,0.000000
2.000000,-0.685899,-0.591612,-1.392782,0.951218,0.886452,0.065167,0.733011,-1.339471,-0.160915,0.505714,-0.994341,-0.776320,5.323568,9.330611,1.615506,-0.133183,-0.073383,0.000000,-0.087022,-0.044357,0.000000
2.010000,-0.676350,-0.582815,-1.392138,0.958574,0.873009,0.063520,0.738338,-1.348947,-0.168594,0.560050,-0.900887,-0.759166,5.529547,9.348478,1.822666,-0.134008,-0.073858,0.000000,-0.077863,-0.049771,-0.000000
2.020000,-0.666727,-0.574152,-1.391512,0.965986,0.859476,0.061796,0.744218,-1.357488,-0.176091,0.616295,-0.807370,-0.739886,5.715949,9.352702,2.033929,-0.134741,-0.074388,0.000000,-0.068754,-0.055377,0.000000
2.030000,-0.657030,-0.565625,-1.390903,0.973460,0.845863,0.059998,0.750670,-1.365094,-0.183385,0.674299,-0.713877,-0.718475,5.881254,9.343716,2.248965,-0.135383,-0.074976,0.000000,-0.059702,-0.061161,-0.000000
2.040000,-0.647258,-0.557235,-1.390312,0.981002,0.832178,0.058129,0.757709,-1.371766,-0.190454,0.733844,-0.620538,-0.694895,6.023941,9.321953,2.467447,-0.135935,-0.075623,0.000000,-0.050719,-0.067103,0.000000
2.050000,-0.637410,-0.548982,-1.389740,0.988616,0.818431,0.056190,0.765351,-1.377506,-0.197276,0.794697,-0.527479,-0.669115,6.142489,9.287847,2.689044,-0.136397,-0.076331,0.000000,-0.041816,-0.073180,0.000000
2.060000,-0.627485,-0.540867,-1.389188,0.996311,0.804631,0.054184,0.773608,-1.382317,-0.203829,0.856715,-0.434822,-0.641122,6.232688,9.241863,2.913865,-0.136771,-0.077101,0.000000,-0.033004,-0.079381,-0.000000
2.070000,-0.617483,-0.532889,-1.388657,1.004091,0.790787,0.052115,0.782488,-1.386204,-0.210090,0.919382,-0.342681,-0.610850,6.296036,9.184397,3.141091,-0.137058,-0.077934,0.000000,-0.024294,-0.085655,0.000000
2.080000,-0.607403,-0.525051,-1.388146,1.011963,0.776910,0.049984,0.791997,-1.389173,-0.216038,0.982542,-0.251171,-0.578294,6.331343,9.115876,3.370338,-0.137258,-0.078830,0.000000,-0.015694,-0.091990,0.000000
2.090000,-0.597244,-0.517351,-1.387657,1.019933,0.763007,0.047795,0.802139,-1.391230,-0.221649,1.045911,-0.160399,-0.543437,6.337416,9.036729,3.601226,-0.137372,-0.079791,0.000000,-0.007214,-0.098359,-0.000000
2.100000,-0.587004,-0.509791,-1.387191,1.028007,0.749088,0.045552,0.812915,-1.392384,-0.226899,1.109189,-0.070470,-0.506265,6.313065,8.947384,3.833371,-0.137402,-0.080816,0.000000,0.001139,-0.104736,-0.000000
2.110000,-0.576683,-0.502370,-1.386747,1.036193,0.735162,0.043258,0.824323,-1.392643,-0.231766,1.172221,0.018475,-0.466789,6.253214,8.849306,4.066952,-0.137350,-0.081906,0.000000,0.009353,-0.111106,0.000000
2.120000,-0.566280,-0.495088,-1.386326,1.044496,0.721238,0.040918,0.836357,-1.392018,-0.236227,1.234319,0.106438,-0.424950,6.161031,8.741760,4.300957,-0.137216,-0.083059,0.000000,0.017429,-0.117407,0.000000
2.130000,-0.555793,-0.487945,-1.385928,1.052922,0.707325,0.038535,0.849006,-1.390518,-0.240258,1.295331,0.193280,-0.380770,6.035802,8.625048,4.534935,-0.137002,-0.084276,0.000000,0.025358,-0.123625,-0.000000
2.140000,-0.545221,-0.480941,-1.385555,1.061478,0.693431,0.036114,0.862259,-1.388156,-0.243835,1.354923,0.278909,-0.334253,5.876809,8.499472,4.768435,-0.136709,-0.085555,0.000000,0.033132,-0.129730,0.000000
2.150000,-0.534563,-0.474076,-1.385206,1.070169,0.679564,0.033660,0.876099,-1.384944,-0.246935,1.412752,0.363240,-0.285405,5.683338,8.365334,5.001006,-0.136340,-0.086895,0.000000,0.040745,-0.135693,-0.000000
2.160000,-0.523817,-0.467350,-1.384882,1.079002,0.665735,0.031177,0.890509,-1.380896,-0.249536,1.468650,0.446141,-0.234295,5.450173,8.224126,5.233646,-0.135895,-0.088294,0.000000,0.048190,-0.141498,-0.000000
2.170000,-0.512982,-0.460761,-1.384583,1.087981,0.651949,0.028671,0.905463,-1.376026,-0.251613,1.521839,0.527643,-0.180803,5.181649,8.074813,5.464277,-0.135376,-0.089750,0.000000,0.055468,-0.147075,0.000000
2.180000,-0.502057,-0.454310,-1.384309,1.097113,0.638217,0.026147,0.920936,-1.370349,-0.253144,1.572165,0.607611,-0.125018,4.877602,7.917550,5.692271,-0.134786,-0.091262,0.000000,0.062571,-0.152410,-0.000000
2.190000,-0.491039,-0.447997,-1.384060,1.106402,0.624545,0.023610,0.936896,-1.363879,-0.254106,1.619272,0.685968,-0.066968,4.537865,7.752495,5.916999,-0.134126,-0.092825,0.000000,0.069495,-0.157472,-0.000000
2.200000,-0.479928,-0.441819,-1.383836,1.115852,0.610942,0.021067,0.953309,-1.356635,-0.254476,1.662803,0.762636,-0.006691,4.162276,7.579803,6.137832,-0.133397,-0.094438,0.000000,0.076234,-0.162229,-0.000000
2.210000,-0.468722,-0.435778,-1.383638,1.125469,0.597415,0.018523,0.970141,-1.348633,-0.254234,1.702586,0.837514,0.055659,3.745910,7.400270,6.357018,-0.132602,-0.096098,0.000000,0.082784,-0.166667,0.000000
2.220000,-0.457418,-0.429871,-1.383466,1.135256,0.583972,0.015984,0.987347,-1.339891,-0.253356,1.737815,0.910588,0.120303,3.293944,7.213333,6.570700,-0.131742,-0.097800,0.000000,0.089143,-0.170710,0.000000
2.230000,-0.446016,-0.424098,-1.383319,1.145217,0.570619,0.013458,1.004882,-1.330427,-0.251821,1.768347,0.981756,0.187052,2.806795,7.019070,6.777897,-0.130819,-0.099541,0.000000,0.095304,-0.174348,-0.000000
2.240000,-0.434513,-0.418458,-1.383197,1.155355,0.557365,0.010950,1.022697,-1.320262,-0.249608,1.793835,1.050945,0.255836,2.284881,6.817558,6.977629,-0.129836,-0.101316,0.000000,0.101266,-0.177548,-0.000000
2.250000,-0.422908,-0.412950,-1.383100,1.165672,0.544216,0.008468,1.040740,-1.309415,-0.246697,1.813931,1.118083,0.326576,1.728619,6.608873,7.168914,-0.128795,-0.103120,0.000000,0.107023,-0.180279,-0.000000
2.260000,-0.411199,-0.407573,-1.383027,1.176170,0.531179,0.006019,1.058959,-1.297908,-0.243072,1.828498,1.183106,0.399024,1.133260,6.392902,7.354792,-0.127697,-0.104950,0.000000,0.112575,-0.182525,0.000000
2.270000,-0.399384,-0.402326,-1.382979,1.186851,0.518260,0.003609,1.077290,-1.285761,-0.238711,1.836717,1.245926,0.473456,0.505022,6.169937,7.529769,-0.126544,-0.106799,0.000000,0.117912,-0.184213,-0.000000
2.280000,-0.387462,-0.397208,-1.382955,1.197716,0.505466,0.001247,1.095671,-1.272997,-0.233597,1.838493,1.306482,0.549578,-0.155046,5.940079,7.692372,-0.125339,-0.108662,0.000000,0.123034,-0.185332,-0.000000
2.290000,-0.375429,-0.392217,-1.382954,1.208765,0.492802,-0.001060,1.114037,-1.259639,-0.227714,1.833513,1.364705,0.627257,-0.845892,5.703430,7.841130,-0.124084,-0.110533,0.000000,0.127936,-0.185851,0.000000
2.300000,-0.363286,-0.387351,-1.382976,1.219997,0.480275,-0.003305,1.132318,-1.245711,-0.221047,1.821476,1.420528,0.706349,-1.566467,5.460091,7.974568,-0.122781,-0.112406,0.000000,0.132617,-0.185739,-0.000000
2.310000,-0.351029,-0.382611,-1.383020,1.231411,0.467890,-0.005479,1.150445,-1.231236,-0.213585,1.802325,1.473929,0.786535,-2.321702,5.209062,8.095188,-0.121432,-0.114274,0.000000,0.137080,-0.184987,-0.000000
2.320000,-0.338657,-0.377993,-1.383085,1.243005,0.455652,-0.007574,1.168339,-1.216240,-0.205313,1.775219,1.524738,0.868013,-3.103831,4.951679,8.197056,-0.120040,-0.116130,0.000000,0.141306,-0.183515,-0.000000
2.330000,-0.326168,-0.373497,-1.383171,1.254776,0.443567,-0.009582,1.185923,-1.200750,-0.196221,1.740165,1.572942,0.950408,-3.911073,4.688177,8.278213,-0.118607,-0.117968,0.000000,0.145301,-0.181318,0.000000
2.340000,-0.313561,-0.369121,-1.383277,1.266722,0.431639,-0.011495,1.203115,-1.184790,-0.186302,1.696920,1.618482,1.033502,-4.741643,4.418793,8.336699,-0.117135,-0.119780,0.000000,0.149061,-0.178366,0.000000
2.350000,-0.300833,-0.364864,-1.383401,1.278837,0.419873,-0.013305,1.219833,-1.168389,-0.175550,1.645260,1.661299,1.117059,-5.593759,4.143763,8.370554,-0.115627,-0.121558,0.000000,0.152586,-0.174632,0.000000
2.360000,-0.287984,-0.360723,-1.383542,1.291117,0.408272,-0.015004,1.235995,-1.151573,-0.163961,1.585309,1.701424,1.200753,-6.473979,3.861171,8.379607,-0.114084,-0.123294,0.000000,0.155882,-0.170121,0.000000
2.370000,-0.275010,-0.356698,-1.383700,1.303555,0.396842,-0.016582,1.251510,-1.134370,-0.151535,1.516096,1.738602,1.284476,-7.371157,3.573667,8.359892,-0.112510,-0.124979,0.000000,0.158926,-0.164730,0.000000
2.380000,-0.261912,-0.352786,-1.383873,1.316144,0.385586,-0.018032,1.266287,-1.116810,-0.138273,1.437839,1.772882,1.367848,-8.282489,3.281749,8.309230,-0.110906,-0.126606,0.000000,0.161726,-0.158470,-0.000000
2.390000,-0.248687,-0.348985,-1.384060,1.328878,0.374507,-0.019344,1.280236,-1.098922,-0.124180,1.350409,1.804224,1.450550,-9.205171,2.985917,8.225442,-0.109276,-0.128165,0.000000,0.164283,-0.151317,-0.000000
2.400000,-0.235334,-0.345295,-1.384260,1.341746,0.363609,-0.020512,1.293264,-1.080736,-0.109265,1.253707,1.832589,1.532239,-10.136398,2.686669,8.106351,-0.107621,-0.129648,0.000000,0.166596,-0.143248,0.000000
2.410000,-0.221852,-0.341713,-1.384470,1.354740,0.352893,-0.021527,1.305280,-1.062280,-0.093540,1.147731,1.858012,1.612590,-11.075120,2.382875,7.948827,-0.105945,-0.131044,0.000000,0.168671,-0.134250,-0.000000
2.420000,-0.208239,-0.338236,-1.384690,1.367848,0.342364,-0.022381,1.316187,-1.043586,-0.077019,1.032274,1.880312,1.691127,-12.016564,2.076863,7.751759,-0.104249,-0.132345,0.000000,0.170495,-0.124284,-0.000000
2.430000,-0.194494,-0.334865,-1.384917,1.381059,0.332022,-0.023065,1.325894,-1.024684,-0.059724,0.907401,1.899544,1.767486,-12.957711,1.769330,7.513085,-0.102536,-0.133540,0.000000,0.172074,-0.113341,-0.000000
2.440000,-0.180617,-0.331595,-1.385151,1.394361,0.321871,-0.023573,1.334304,-1.005605,-0.041678,0.773131,1.915696,1.841243,-13.895543,1.460974,7.230743,-0.100808,-0.134620,0.000000,0.173412,-0.101403,-0.000000
2.450000,-0.166607,-0.328427,-1.385388,1.407741,0.311911,-0.023896,1.341325,-0.986380,-0.022910,0.629511,1.928763,1.911949,-14.827039,1.152494,6.902671,-0.099068,-0.135575,0.000000,0.174509,-0.088455,0.000000
2.460000,-0.152462,-0.325356,-1.385628,1.421183,0.302144,-0.024029,1.346870,-0.967038,-0.003447,0.477269,1.938906,1.979548,-15.765560,0.840593,6.516417,-0.097319,-0.136395,0.000000,0.175381,-0.074554,0.000000
2.470000,-0.138183,-0.322383,-1.385868,1.434673,0.292570,-0.023963,1.350839,-0.947613,0.016668,0.314979,1.945759,2.042579,-16.689702,0.530453,6.081582,-0.095561,-0.137070,0.000000,0.176000,-0.059521,-0.000000
2.480000,-0.123769,-0.319504,-1.386106,1.448194,0.283191,-0.023693,1.353140,-0.928134,0.037390,0.143540,1.949525,2.101015,-17.594441,0.223262,5.597377,-0.093799,-0.137588,0.000000,0.176385,-0.043428,0.000000
2.490000,-0.109219,-0.316719,-1.386341,1.461730,0.274008,-0.023213,1.353680,-0.908632,0.058671,-0.036828,1.950238,2.154359,-18.474754,-0.079793,5.063010,-0.092035,-0.137939,0.000000,0.176541,-0.026273,-0.000000
2.500000,-0.094534,-0.314024,-1.386570,1.475261,0.265019,-0.022518,1.352374,-0.889139,0.080458,-0.225857,1.947947,2.202106,-19.325615,-0.377524,4.477694,-0.090269,-0.138112,0.000000,0.176473,-0.008057,-0.000000
2.510000,-0.079714,-0.311418,-1.386791,1.488771,0.256225,-0.021603,1.349135,-0.869683,0.102699,-0.423282,1.942749,2.244288,-20.140588,-0.669752,3.826810,-0.088506,-0.138097,0.000000,0.176186,0.011211,0.000000
2.520000,-0.064759,-0.308898,-1.387001,1.502237,0.247625,-0.020463,1.343882,-0.850293,0.125321,-0.628601,1.934623,2.279090,-20.916233,-0.954158,3.125089,-0.086746,-0.137883,0.000000,0.175689,0.031523,0.000000
2.530000,-0.049669,-0.306464,-1.387199,1.515641,0.239219,-0.019095,1.336538,-0.831000,0.148256,-0.841459,1.923697,2.306624,-21.647700,-1.229432,2.373437,-0.084993,-0.137461,0.000000,0.174991,0.052860,-0.000000
2.540000,-0.034446,-0.304113,-1.387382,1.528961,0.231004,-0.017497,1.327029,-0.811829,0.171428,-1.061391,1.910069,2.326395,-22.330137,-1.494262,1.572756,-0.083247,-0.136819,0.000000,0.174099,0.075197,0.000000
2.550000,-0.019091,-0.301844,-1.387548,1.542174,0.222981,-0.015666,1.315288,-0.792807,0.194757,-1.287882,1.893851,2.337918,-22.958693,-1.747337,0.723951,-0.081511,-0.135948,0.000000,0.173024,0.098504,0.000000
2.560000,-0.003603,-0.299653,-1.387695,1.555259,0.215148,-0.013602,1.301248,-0.773960,0.218166,-1.520679,1.875132,2.341471,-23.520705,-1.986488,-0.191122,-0.079787,-0.134839,0.000000,0.171766,0.122764,-0.000000
2.570000,0.012014,-0.297540,-1.387820,1.568192,0.207502,-0.011303,1.284857,-0.755312,0.241555,-1.758436,1.854130,2.334800,-24.020089,-2.211369,-1.150179,-0.078077,-0.133482,0.000000,0.170360,0.147882,0.000000
2.580000,0.027760,-0.295503,-1.387920,1.580948,0.200041,-0.008771,1.266064,-0.736885,0.264829,-2.000859,1.830956,2.318331,-24.452950,-2.420773,-2.149985,-0.076381,-0.131869,0.000000,0.168809,0.173829,0.000000
2.590000,0.043632,-0.293539,-1.387994,1.593505,0.192763,-0.006007,1.244826,-0.718700,0.287888,-2.247261,1.805770,2.291675,-24.815394,-2.613495,-3.187303,-0.074701,-0.129993,0.000000,0.167124,0.200544,-0.000000
2.600000,0.059629,-0.291647,-1.388040,1.605837,0.185666,-0.003015,1.221108,-0.700775,0.310627,-2.496919,1.778746,2.254471,-25.103524,-2.788329,-4.258897,-0.073039,-0.127845,0.000000,0.165321,0.227957,-0.000000
2.610000,0.075748,-0.289825,-1.388054,1.617919,0.178747,0.000203,1.194879,-0.683131,0.332951,-2.749154,1.750014,2.207316,-25.311335,-2.942719,-5.384830,-0.071395,-0.125420,0.000000,0.163401,0.255986,0.000000
2.620000,0.091987,-0.288071,-1.388035,1.629726,0.172002,0.003642,1.166119,-0.665780,0.354736,-3.002967,1.719898,2.147731,-25.437301,-3.076976,-6.535713,-0.069771,-0.122710,0.000000,0.161410,0.284551,0.000000
2.630000,0.108342,-0.286384,-1.387980,1.641233,0.165430,0.007296,1.134817,-0.648737,0.375867,-3.257615,1.688545,2.076539,-25.477788,-3.190059,-7.705458,-0.068167,-0.119713,0.000000,0.159350,0.313547,-0.000000
2.640000,0.124810,-0.284762,-1.387888,1.652414,0.159027,0.011157,1.100967,-0.632013,0.396227,-3.512226,1.656171,1.993580,-25.429157,-3.280927,-8.887975,-0.066584,-0.116424,0.000000,0.157239,0.342865,0.000000
2.650000,0.141389,-0.283203,-1.387757,1.663243,0.152789,0.015218,1.064575,-0.615616,0.415699,-3.765889,1.623004,1.898757,-25.287774,-3.348541,-10.077176,-0.065022,-0.112840,0.000000,0.155094,0.372384,-0.000000
2.660000,0.158074,-0.281706,-1.387583,1.673697,0.146713,0.019468,1.025644,-0.599557,0.434169,-4.018745,1.589020,1.792594,-25.022581,-3.385252,-11.281110,-0.063482,-0.108959,0.000000,0.152902,0.402080,0.000000
2.670000,0.174862,-0.280268,-1.387367,1.683748,0.140797,0.023897,0.984211,-0.583837,0.451511,-4.267243,1.555086,1.673790,-24.660720,-3.397436,-12.477818,-0.061964,-0.104783,0.000000,0.150759,0.431554,0.000000
2.680000,0.191748,-0.278889,-1.387105,1.693373,0.135035,0.028494,0.940313,-0.568455,0.467605,-4.511637,1.521153,1.543088,-24.201913,-3.384865,-13.659479,-0.060467,-0.100312,0.000000,0.148647,0.460776,0.000000
2.690000,0.208728,-0.277567,-1.386796,1.702546,0.129426,0.033245,0.893995,-0.553413,0.482333,-4.750957,1.487472,1.400677,-23.645882,-3.347305,-14.818272,-0.058991,-0.095552,0.000000,0.146585,0.489590,-0.000000
2.700000,0.225797,-0.276300,-1.386439,1.711245,0.123966,0.038135,0.845314,-0.538704,0.495580,-4.984229,1.454291,1.246825,-22.992347,-3.284527,-15.946378,-0.057535,-0.090505,0.000000,0.144593,0.517830,0.000000
2.710000,0.242951,-0.275087,-1.386033,1.719445,0.118651,0.043151,0.794322,-0.524328,0.507234,-5.211589,1.421555,1.081969,-22.212953,-3.188442,-17.038288,-0.056099,-0.085179,0.000000,0.142655,0.545446,0.000000
2.720000,0.260184,-0.273927,-1.385576,1.727124,0.113478,0.048274,0.741109,-0.510270,0.517184,-5.429426,1.390254,0.906318,-21.338936,-3.067639,-18.083586,-0.054682,-0.079582,0.000000,0.140871,0.571983,0.000000
2.730000,0.277491,-0.272817,-1.385067,1.734260,0.108445,0.053488,0.685764,-0.496518,0.525326,-5.638063,1.360282,0.720480,-20.373457,-2.922848,-19.074168,-0.053281,-0.073726,0.000000,0.139219,0.597400,0.000000
2.740000,0.294867,-0.271757,-1.384506,1.740833,0.103547,0.058775,0.628382,-0.483059,0.531561,-5.836601,1.331875,0.525044,-19.319674,-2.754801,-20.001931,-0.051897,-0.067622,0.000000,0.137717,0.621525,-0.000000
2.750000,0.312306,-0.270746,-1.383892,1.746822,0.098783,0.064113,0.569068,-0.469875,0.535797,-6.024173,1.305261,0.320678,-18.180747,-2.564229,-20.858770,-0.050527,-0.061284,0.000000,0.136378,0.644189,-0.000000
2.760000,0.329802,-0.269781,-1.383224,1.752208,0.094149,0.069484,0.507925,-0.456950,0.537941,-6.201099,1.280325,0.107521,-16.930647,-2.343320,-21.621158,-0.049169,-0.054725,0.000000,0.135184,0.665355,-0.000000
2.770000,0.347348,-0.268862,-1.382502,1.756975,0.089643,0.074865,0.445089,-0.444260,0.537924,-6.363838,1.258080,-0.112150,-15.605297,-2.102395,-22.298304,-0.047822,-0.047966,0.000000,0.134226,0.684562,-0.000000
2.780000,0.364939,-0.267988,-1.381726,1.761105,0.085263,0.080235,0.380694,-0.431781,0.535677,-6.512976,1.238337,-0.338140,-14.211429,-1.843229,-22.883993,-0.046484,-0.041025,0.000000,0.133477,0.701813,-0.000000
2.790000,0.382568,-0.267157,-1.380897,1.764584,0.081007,0.085571,0.314877,-0.419485,0.531143,-6.647861,1.221270,-0.569504,-12.755777,-1.567600,-23.372010,-0.045152,-0.033922,0.000000,0.132944,0.716977,0.000000
2.800000,0.400229,-0.266367,-1.380015,1.767398,0.076873,0.090850,0.247786,-0.407346,0.524272,-6.767908,1.207034,-0.805234,-11.245074,-1.277285,-23.756139,-0.043824,-0.026678,0.000000,0.132635,0.729943,0.000000
2.810000,0.417914,-0.265619,-1.379081,1.769536,0.072860,0.096049,0.179563,-0.395337,0.515014,-6.873286,1.195523,-1.045460,-9.668761,-0.967894,-23.999870,-0.042499,-0.019316,0.000000,0.132531,0.740688,-0.000000
2.820000,0.435617,-0.264910,-1.378095,1.770987,0.068966,0.101142,0.110373,-0.383425,0.503357,-6.961924,1.187436,-1.286209,-8.052982,-0.648126,-24.130992,-0.041173,-0.011859,0.000000,0.132683,0.748958,0.000000
2.830000,0.453331,-0.264239,-1.377058,1.771741,0.065191,0.106108,0.040379,-0.371577,0.489288,-7.034243,1.182587,-1.527696,-6.406589,-0.320514,-24.147001,-0.039844,-0.004332,0.000000,0.133068,0.754786,-0.000000
2.840000,0.471050,-0.263606,-1.375973,1.771792,0.061534,0.110920,-0.030256,-0.359762,0.472804,-7.089983,1.181043,-1.768757,-4.738433,0.012410,-24.045392,-0.038511,0.003240,0.000000,0.133682,0.758142,0.000000
2.850000,0.488765,-0.263008,-1.374840,1.771134,0.057996,0.115556,-0.101365,-0.347945,0.453918,-7.128969,1.182845,-2.008203,-3.057365,0.348113,-23.823659,-0.037170,0.010834,0.000000,0.134520,0.759022,-0.000000
2.860000,0.506470,-0.262445,-1.373662,1.769764,0.054575,0.119991,-0.172779,-0.336094,0.432634,-7.151046,1.187951,-2.246280,-1.374022,0.685467,-23.442444,-0.035820,0.018423,0.000000,0.135572,0.757429,0.000000
2.870000,0.524158,-0.261916,-1.372441,1.767678,0.051274,0.124201,-0.244330,-0.324175,0.409007,-7.156385,1.196483,-2.478295,0.304749,1.020364,-22.940608,-0.034458,0.025984,0.000000,0.136829,0.753429,-0.000000
2.880000,0.541821,-0.261419,-1.371179,1.764877,0.048092,0.128164,-0.315851,-0.312154,0.383087,-7.144995,1.208341,-2.704697,1.970315,1.350098,-22.320157,-0.033082,0.033493,0.000000,0.138281,0.747075,0.000000
2.890000,0.559453,-0.260954,-1.369879,1.761362,0.045031,0.131855,-0.387174,-0.299997,0.354936,-7.117052,1.223459,-2.924310,3.614045,1.671967,-21.583100,-0.031692,0.040926,0.000000,0.139912,0.738449,-0.000000
2.900000,0.577046,-0.260518,-1.368543,1.757135,0.042093,0.135255,-0.458137,-0.287674,0.324627,-7.072816,1.241745,-3.135977,5.227306,1.983265,-20.731443,-0.030284,0.048262,0.000000,0.141709,0.727655,0.000000
2.910000,0.594593,-0.260112,-1.367175,1.752201,0.039278,0.138341,-0.528569,-0.275151,0.292232,-7.011871,1.263234,-3.339892,6.782149,2.277389,-19.733641,-0.028857,0.055478,0.000000,0.143675,0.714723,0.000000
2.920000,0.612088,-0.259732,-1.365777,1.746566,0.036590,0.141094,-0.598324,-0.262400,0.257864,-6.936462,1.287415,-3.531793,8.291623,2.556012,-18.629364,-0.027410,0.062556,0.000000,0.145744,0.699999,-0.000000
2.930000,0.629522,-0.259379,-1.364354,1.740237,0.034031,0.143493,-0.667249,-0.249393,0.221635,-6.846211,1.314295,-3.712144,9.749462,2.816905,-17.424726,-0.025941,0.069477,0.000000,0.147922,0.683529,0.000000
2.940000,0.646890,-0.259051,-1.362909,1.733224,0.031604,0.145520,-0.735200,-0.236105,0.183663,-6.741665,1.343687,-3.879973,11.149398,3.057843,-16.125843,-0.024451,0.076226,0.000000,0.150190,0.665471,0.000000
2.950000,0.664184,-0.258747,-1.361445,1.725537,0.029310,0.147160,-0.802037,-0.222512,0.144080,-6.623437,1.375378,-4.034367,12.485163,3.276598,-14.738831,-0.022937,0.082786,0.000000,0.152529,0.645985,-0.000000
2.960000,0.681399,-0.258465,-1.359967,1.717187,0.027154,0.148397,-0.867613,-0.208587,0.103014,-6.491022,1.409462,-4.175352,13.720816,3.462744,-13.247678,-0.021400,0.089143,0.000000,0.154956,0.625112,0.000000
2.970000,0.698526,-0.258203,-1.358479,1.708189,0.025140,0.149217,-0.931817,-0.194317,0.060624,-6.347939,1.444914,-4.300065,14.883399,3.623257,-11.683337,-0.019838,0.095288,0.000000,0.157367,0.603326,-0.000000
2.980000,0.715560,-0.257961,-1.356984,1.698556,0.023269,0.149606,-0.994534,-0.179684,0.017066,-6.193606,1.481837,-4.408805,15.970277,3.756915,-10.054634,-0.018252,0.101209,0.000000,0.159784,0.580649,-0.000000
2.990000,0.732495,-0.257738,-1.355488,1.688303,0.021547,0.149555,-1.055654,-0.164676,-0.027497,-6.028795,1.519958,-4.500972,16.978818,3.862496,-8.370395,-0.016643,0.106900,0.000000,0.162190,0.557246,0.000000
3.000000,0.749324,-0.257530,-1.353994,1.677448,0.019977,0.149053,-1.115078,-0.149282,-0.072897,-5.854300,1.558990,-4.576057,17.906389,3.938775,-6.639443,-0.015009,0.112354,0.000000,0.164568,0.533274,-0.000000
3.010000,0.766042,-0.257337,-1.352508,1.666007,0.018563,0.148095,-1.172698,-0.133490,-0.118963,-5.669735,1.599045,-4.633895,18.719793,3.974094,-4.864036,-0.013351,0.117564,0.000000,0.166941,0.508765,0.000000
3.020000,0.782643,-0.257158,-1.351034,1.654000,0.017308,0.146672,-1.228447,-0.117301,-0.165515,-5.478815,1.638836,-4.673537,19.450703,3.978945,-3.060373,-0.011670,0.122529,0.000000,0.169195,0.484156,-0.000000
3.030000,0.799120,-0.256991,-1.349576,1.641445,0.016218,0.144783,-1.282251,-0.100714,-0.212373,-5.280993,1.678523,-4.695040,20.100226,3.953382,-1.238083,-0.009967,0.127248,0.000000,0.171362,0.459443,0.000000
3.040000,0.815470,-0.256833,-1.348140,1.628362,0.015295,0.142425,-1.334046,-0.083731,-0.259355,-5.077078,1.717802,-4.698268,20.669471,3.897460,0.593203,-0.008243,0.131719,0.000000,0.173429,0.434748,0.000000
3.050000,0.831686,-0.256684,-1.346729,1.614771,0.014545,0.139596,-1.383775,-0.066360,-0.306277,-4.867867,1.756371,-4.683179,21.159549,3.811234,2.423857,-0.006499,0.135943,0.000000,0.175382,0.410184,-0.000000
3.060000,0.847763,-0.256542,-1.345350,1.600693,0.013969,0.136300,-1.431379,-0.048603,-0.352954,-4.653243,1.794329,-4.649495,21.548725,3.684588,4.235908,-0.004736,0.139922,0.000000,0.177250,0.385772,-0.000000
3.070000,0.863698,-0.256404,-1.344005,1.586150,0.013574,0.132539,-1.476828,-0.030478,-0.399207,-4.436120,1.830420,-4.598151,21.863748,3.528993,6.029088,-0.002955,0.143660,0.000000,0.178928,0.361797,-0.000000
3.080000,0.879485,-0.256270,-1.342700,1.571164,0.013361,0.128318,-1.520092,-0.012000,-0.444857,-4.216202,1.864817,-4.529005,22.108524,3.345751,7.794788,-0.001158,0.147160,0.000000,0.180451,0.338244,0.000000
3.090000,0.895120,-0.256136,-1.341440,1.555756,0.013335,0.123644,-1.561145,0.006812,-0.489729,-3.994171,1.897248,-4.442375,22.286957,3.136162,9.524399,0.000654,0.150426,0.000000,0.181810,0.315179,0.000000
3.100000,0.910599,-0.256002,-1.340229,1.539948,0.013498,0.118526,-1.599970,0.025937,-0.533648,-3.770671,1.927456,-4.338666,22.402953,2.901528,11.209314,0.002478,0.153465,0.000000,0.182999,0.292655,-0.000000
3.110000,0.925918,-0.255866,-1.339071,1.523764,0.013854,0.112975,-1.636551,0.045356,-0.576439,-3.545907,1.955508,-4.217617,22.450315,2.635336,12.821986,0.004314,0.156281,0.000000,0.184042,0.270692,-0.000000
3.120000,0.941073,-0.255725,-1.337971,1.507225,0.014406,0.107001,-1.670888,0.065038,-0.617948,-3.321391,1.980440,-4.081580,22.444289,2.347657,14.375063,0.006158,0.158881,0.000000,0.184861,0.249385,-0.000000
3.130000,0.956061,-0.255577,-1.336932,1.490353,0.015156,0.100620,-1.702980,0.084955,-0.658020,-3.097182,2.002397,-3.930336,22.390019,2.040746,15.862255,0.008010,0.161271,0.000000,0.185487,0.228728,0.000000
3.140000,0.970879,-0.255421,-1.335960,1.473172,0.016106,0.093846,-1.732834,0.105076,-0.696506,-2.873735,2.021199,-3.764575,22.292648,1.716860,17.277272,0.009867,0.163458,0.000000,0.185918,0.208735,-0.000000
3.150000,0.985524,-0.255254,-1.335057,1.455704,0.017258,0.086696,-1.760459,0.125368,-0.733265,-2.651455,2.036685,-3.585052,22.157318,1.378257,18.613824,0.011728,0.165448,0.000000,0.186152,0.189412,0.000000
3.160000,0.999992,-0.255075,-1.334227,1.437971,0.018614,0.079187,-1.785870,0.145800,-0.768154,-2.430836,2.048881,-3.391640,21.992669,1.023186,19.841843,0.013590,0.167249,0.000000,0.186203,0.170784,-0.000000
3.170000,1.014282,-0.254881,-1.333474,1.419994,0.020174,0.071339,-1.809081,0.166333,-0.801058,-2.211852,2.057296,-3.187447,21.799920,0.658402,20.981729,0.015451,0.168867,0.000000,0.186036,0.152775,-0.000000
3.180000,1.028391,-0.254671,-1.332801,1.401796,0.021941,0.063173,-1.830113,0.186933,-0.831866,-1.994916,2.062026,-2.972310,21.583785,0.286653,22.030103,0.017310,0.170307,0.000000,0.185668,0.135401,-0.000000
3.190000,1.042317,-0.254442,-1.332212,1.383399,0.023913,0.054709,-1.848987,0.207562,-0.860471,-1.780238,2.063015,-2.747161,21.348981,-0.089313,22.983589,0.019164,0.171577,0.000000,0.185103,0.118641,-0.000000
3.200000,1.056059,-0.254192,-1.331708,1.364824,0.026092,0.045971,-1.865726,0.228181,-0.886779,-1.567983,2.060234,-2.512966,21.100222,-0.466748,23.838807,0.021011,0.172682,0.000000,0.184345,0.102468,-0.000000
3.210000,1.069613,-0.253919,-1.331293,1.346092,0.028476,0.036981,-1.880361,0.248754,-0.910694,-1.358814,2.053674,-2.269793,20.856089,-0.842664,24.568863,0.022850,0.173629,0.000000,0.183398,0.086915,-0.000000
3.220000,1.082980,-0.253622,-1.330969,1.327224,0.031067,0.027765,-1.892911,0.269242,-0.932152,-1.151500,2.043384,-2.020879,20.605733,-1.214582,25.196774,0.024679,0.174423,0.000000,0.182268,0.071792,0.000000
3.230000,1.096157,-0.253297,-1.330739,1.308240,0.033861,0.018347,-1.903400,0.289609,-0.951092,-0.946710,2.029405,-1.766199,20.352172,-1.579786,25.722043,0.026495,0.175067,0.000000,0.180960,0.057136,0.000000
3.240000,1.109145,-0.252944,-1.330603,1.289162,0.036858,0.008752,-1.911853,0.309818,-0.967460,-0.744458,2.011820,-1.506782,20.098423,-1.935555,26.144171,0.028297,0.175567,0.000000,0.179483,0.042906,-0.000000
3.250000,1.121940,-0.252559,-1.330564,1.270010,0.040057,-0.000994,-1.918297,0.329834,-0.981215,-0.544732,1.990735,-1.243661,19.847505,-2.279172,26.462661,0.030084,0.175927,0.000000,0.177845,0.029060,0.000000
3.260000,1.134545,-0.252142,-1.330623,1.250803,0.043454,-0.010864,-1.922764,0.349620,-0.992316,-0.348225,1.966123,-0.977087,19.621045,-2.603807,26.657089,0.031854,0.176151,0.000000,0.176043,0.015633,-0.000000
3.270000,1.146956,-0.251690,-1.330782,1.231561,0.047048,-0.020832,-1.925269,0.369146,-1.000752,-0.153120,1.938532,-0.709971,19.401170,-2.911355,26.749321,0.033605,0.176241,0.000000,0.174119,0.002391,-0.000000
3.280000,1.159176,-0.251200,-1.331040,1.212304,0.050836,-0.030870,-1.925834,0.388380,-1.006514,0.039823,1.907960,-0.442435,19.188620,-3.199604,26.741298,0.035336,0.176199,0.000000,0.172068,-0.010621,0.000000
3.290000,1.171202,-0.250672,-1.331399,1.193051,0.054815,-0.040953,-1.924480,0.407295,-1.009603,0.230680,1.874612,-0.175473,18.984131,-3.466337,26.634961,0.037046,0.176029,0.000000,0.169903,-0.023447,-0.000000
3.300000,1.183037,-0.250104,-1.331859,1.173821,0.058981,-0.051053,-1.921227,0.425864,-1.010029,0.419535,1.838712,0.089943,18.788443,-3.709340,26.432252,0.038733,0.175731,0.000000,0.167638,-0.036131,-0.000000
3.310000,1.194679,-0.249492,-1.332420,1.154633,0.063331,-0.061145,-1.916103,0.444059,-1.007806,0.605788,1.800227,0.353444,18.619777,-3.919226,26.120310,0.040398,0.175307,0.000000,0.165262,-0.048645,-0.000000
3.320000,1.206130,-0.248836,-1.333082,1.135505,0.067861,-0.071201,-1.909117,0.461862,-1.002972,0.791177,1.760099,0.612708,18.459247,-4.101830,25.717690,0.042038,0.174757,0.000000,0.162848,-0.061201,0.000000
3.330000,1.217389,-0.248134,-1.333844,1.116457,0.072567,-0.081196,-1.900285,0.479255,-0.995567,0.974995,1.718286,0.867508,18.305451,-4.255816,25.228145,0.043655,0.174082,0.000000,0.160383,-0.073758,0.000000
3.340000,1.228459,-0.247384,-1.334706,1.097506,0.077445,-0.091104,-1.889622,0.496223,-0.985640,1.157304,1.675082,1.116993,18.156987,-4.379846,24.655429,0.045246,0.173280,0.000000,0.157885,-0.086354,-0.000000
3.350000,1.239340,-0.246585,-1.335666,1.078671,0.082490,-0.100900,-1.877143,0.512753,-0.973247,1.338148,1.630793,1.360351,18.012452,-4.472584,24.003296,0.046812,0.172352,0.000000,0.155371,-0.099022,0.000000
3.360000,1.250033,-0.245734,-1.336723,1.059969,0.087698,-0.110561,-1.862869,0.528833,-0.958452,1.517104,1.585376,1.597176,17.881983,-4.523522,23.266184,0.048353,0.171298,0.000000,0.152825,-0.111747,-0.000000
3.370000,1.260540,-0.244830,-1.337876,1.041419,0.093065,-0.120062,-1.846806,0.544460,-0.941330,1.695272,1.540023,1.825855,17.751226,-4.541616,22.458301,0.049869,0.170114,0.000000,0.150344,-0.124670,0.000000
3.380000,1.270862,-0.243872,-1.339124,1.023039,0.098586,-0.129380,-1.828968,0.559633,-0.921962,1.872118,1.494654,2.046122,17.617364,-4.526655,21.584544,0.051360,0.168801,0.000000,0.147910,-0.137763,0.000000
3.390000,1.281001,-0.242858,-1.340463,1.004846,0.104256,-0.138494,-1.809368,0.574354,-0.900437,2.047599,1.449601,2.257343,17.477583,-4.478423,20.649804,0.052827,0.167355,0.000000,0.145542,-0.151045,-0.000000
3.400000,1.290960,-0.241787,-1.341893,0.986857,0.110071,-0.147382,-1.788020,0.588627,-0.876848,2.221641,1.405197,2.458931,17.329066,-4.396708,19.658977,0.054271,0.165775,0.000000,0.143260,-0.164534,-0.000000
3.410000,1.300739,-0.240656,-1.343410,0.969091,0.116027,-0.156024,-1.764941,0.602457,-0.851291,2.394025,1.361381,2.650507,17.171952,-4.271233,18.613020,0.055692,0.164059,0.000000,0.141048,-0.178228,0.000000
3.420000,1.310342,-0.239466,-1.345012,0.951564,0.122119,-0.164402,-1.740145,0.615860,-0.823873,2.564899,1.319432,2.831215,17.000109,-4.113080,17.521246,0.057093,0.162204,0.000000,0.139013,-0.192164,-0.000000
3.430000,1.319771,-0.238213,-1.346697,0.934294,0.128343,-0.172496,-1.713650,0.628851,-0.794704,2.733968,1.279225,3.000798,16.810362,-3.923265,16.389030,0.058473,0.160208,0.000000,0.137133,-0.206331,0.000000
3.440000,1.329029,-0.236898,-1.348461,0.917297,0.134695,-0.180290,-1.685473,0.641451,-0.763896,2.901036,1.241069,3.158878,16.599532,-3.702809,15.221750,0.059836,0.158070,0.000000,0.135430,-0.220725,-0.000000
3.450000,1.338118,-0.235519,-1.350302,0.900590,0.141171,-0.187769,-1.655636,0.653680,-0.731566,3.065877,1.205267,3.305134,16.364442,-3.452728,14.024782,0.061182,0.155785,0.000000,0.133923,-0.235337,0.000000
3.460000,1.347042,-0.234075,-1.352216,0.884190,0.147768,-0.194917,-1.624161,0.665561,-0.697834,3.228464,1.171718,3.439246,16.096093,-3.164135,12.804690,0.062515,0.153353,0.000000,0.132594,-0.250175,-0.000000
3.470000,1.355803,-0.232563,-1.354199,0.868112,0.154481,-0.201721,-1.591076,0.677125,-0.662822,3.387960,1.141630,3.561111,15.797843,-2.849167,11.565517,0.063835,0.150771,0.000000,0.131551,-0.265167,0.000000
3.480000,1.364405,-0.230985,-1.356249,0.852373,0.161309,-0.208169,-1.556412,0.688404,-0.626653,3.544313,1.114815,3.670510,15.467228,-2.510056,10.312493,0.065146,0.148038,0.000000,0.130769,-0.280311,-0.000000
3.490000,1.372852,-0.229337,-1.358361,0.836989,0.168249,-0.214251,-1.520202,0.699433,-0.589453,3.697188,1.091502,3.767332,15.101784,-2.149034,9.050847,0.066451,0.145153,0.000000,0.130267,-0.295578,-0.000000
3.500000,1.381146,-0.227619,-1.360533,0.821974,0.175297,-0.219955,-1.482481,0.710247,-0.551349,3.846224,1.071900,3.851516,14.699047,-1.768332,7.785812,0.067753,0.142114,0.000000,0.130059,-0.310929,0.000000
3.510000,1.389292,-0.225831,-1.362759,0.807344,0.182453,-0.225275,-1.443286,0.720880,-0.512468,3.991544,1.055842,3.922825,14.243736,-1.361297,6.528403,0.069053,0.138919,0.000000,0.130126,-0.326374,-0.000000
3.520000,1.397294,-0.223970,-1.365037,0.793113,0.189714,-0.230202,-1.402666,0.731377,-0.472934,4.131536,1.044324,3.981847,13.747774,-0.940133,5.277356,0.070356,0.135570,0.000000,0.130561,-0.341743,0.000000
3.530000,1.405156,-0.222036,-1.367362,0.779295,0.197080,-0.234732,-1.360672,0.741781,-0.432872,4.266361,1.037075,4.028409,13.210266,-0.508158,4.037193,0.071666,0.132068,0.000000,0.131337,-0.357040,-0.000000
3.540000,1.412882,-0.220028,-1.369730,0.765904,0.204550,-0.238859,-1.317358,0.752133,-0.392407,4.395600,1.034186,4.062642,12.630316,-0.068693,2.812436,0.072984,0.128412,0.000000,0.132462,-0.372207,0.000000
3.550000,1.420476,-0.217945,-1.372138,0.752952,0.212123,-0.242579,-1.272780,0.762479,-0.351660,4.518823,1.035715,4.084724,12.007031,0.374943,1.607608,0.074316,0.124604,0.000000,0.133940,-0.387182,0.000000
3.560000,1.427942,-0.215785,-1.374580,0.740452,0.219800,-0.245891,-1.226995,0.772858,-0.310756,4.636294,1.041263,4.094518,11.321802,0.830173,0.436274,0.075664,0.120647,0.000000,0.135731,-0.401971,-0.000000
3.570000,1.435286,-0.213548,-1.377054,0.728416,0.227580,-0.248794,-1.180078,0.783320,-0.269808,4.745906,1.051827,4.093138,10.593616,1.281621,-0.707196,0.077032,0.116543,0.000000,0.137936,-0.416331,-0.000000
3.580000,1.442512,-0.211233,-1.379555,0.716854,0.235466,-0.251288,-1.132102,0.793909,-0.228931,4.848027,1.066867,4.080478,9.823749,1.724651,-1.819386,0.078424,0.112297,0.000000,0.140503,-0.430270,-0.000000
3.590000,1.449625,-0.208839,-1.382078,0.705777,0.243459,-0.253373,-1.083144,0.804671,-0.188235,4.942247,1.086276,4.056866,9.013474,2.154629,-2.896883,0.079843,0.107913,0.000000,0.143421,-0.443712,0.000000
3.600000,1.456629,-0.206363,-1.384621,0.695194,0.251561,-0.255053,-1.033285,0.815649,-0.147829,5.028167,1.109901,4.022667,8.164066,2.566922,-3.936272,0.081293,0.103396,0.000000,0.146677,-0.456582,0.000000
3.610000,1.463530,-0.203807,-1.387178,0.685114,0.259773,-0.256331,-0.982604,0.826888,-0.107821,5.105898,1.137978,3.977804,7.264277,2.945821,-4.922144,0.082778,0.098752,0.000000,0.150291,-0.468855,0.000000
3.620000,1.470333,-0.201168,-1.389746,0.675545,0.268099,-0.257211,-0.931197,0.838421,-0.068305,5.173894,1.169226,3.923834,6.329436,3.299120,-5.864547,0.084300,0.093989,0.000000,0.154145,-0.480324,0.000000
3.630000,1.477043,-0.198445,-1.392321,0.666492,0.276542,-0.257699,-0.879158,0.850283,-0.029375,5.232379,1.203865,3.860665,5.362351,3.623541,-6.761536,0.085862,0.089114,0.000000,0.158256,-0.490971,-0.000000
3.640000,1.483665,-0.195636,-1.394899,0.657963,0.285106,-0.257801,-0.826582,0.862508,0.008879,5.281043,1.241590,3.788761,4.365829,3.915805,-7.611165,0.087466,0.084136,0.000000,0.162595,-0.500723,-0.000000
3.650000,1.490204,-0.192742,-1.397476,0.649962,0.293794,-0.257524,-0.773571,0.875124,0.046373,5.319607,1.282063,3.708606,3.342678,4.172633,-8.411487,0.089114,0.079065,0.000000,0.167126,-0.509504,0.000000
3.660000,1.496666,-0.189760,-1.400048,0.642493,0.302610,-0.256876,-0.720219,0.888155,0.083021,5.348355,1.324651,3.620321,2.282116,4.397368,-9.150922,0.090809,0.073909,0.000000,0.171781,-0.517301,-0.000000
3.670000,1.503056,-0.186689,-1.402612,0.635558,0.311559,-0.255866,-0.666639,0.901624,0.118755,5.365791,1.369572,3.525331,1.202203,4.579299,-9.838338,0.092550,0.068680,0.000000,0.176588,-0.523910,-0.000000
3.680000,1.509379,-0.183528,-1.405164,0.629160,0.320644,-0.254504,-0.612939,0.915551,0.153506,5.372350,1.416081,3.423730,0.107412,4.714336,-10.472971,0.094341,0.063389,0.000000,0.181468,-0.529334,-0.000000
3.690000,1.515641,-0.180276,-1.407701,0.623300,0.329871,-0.252800,-0.559229,0.929950,0.187210,5.367905,1.463688,3.316050,-0.997787,4.798389,-11.054053,0.096180,0.058050,0.000000,0.186367,-0.533518,-0.000000
3.700000,1.521847,-0.176931,-1.410219,0.617975,0.339245,-0.250764,-0.505618,0.944827,0.219809,5.352374,1.511865,3.202830,-2.108921,4.827370,-11.580820,0.098068,0.052674,0.000000,0.191230,-0.536413,0.000000
3.710000,1.528002,-0.173491,-1.412715,0.613187,0.348769,-0.248407,-0.452221,0.960205,0.251245,5.325458,1.561713,3.084195,-3.214876,4.754908,-12.041841,0.100006,0.047274,0.000000,0.196165,-0.537953,0.000000
3.720000,1.534112,-0.169955,-1.415186,0.608930,0.358450,-0.245743,-0.399146,0.976058,0.281478,5.287787,1.608657,2.961699,-4.318638,4.624372,-12.448320,0.101991,0.041865,0.000000,0.200706,-0.538162,0.000000
3.730000,1.540182,-0.166321,-1.417629,0.605202,0.368292,-0.242782,-0.346502,0.992373,0.310466,5.239105,1.654010,2.835408,-5.416548,4.436847,-12.800797,0.104019,0.036460,0.000000,0.204981,-0.536988,0.000000
3.740000,1.546218,-0.162588,-1.420041,0.601998,0.378299,-0.239538,-0.294400,1.009131,0.338175,5.179488,1.697207,2.705861,-6.504949,4.193422,-13.099812,0.106089,0.031072,0.000000,0.208929,-0.534411,-0.000000
3.750000,1.552224,-0.158755,-1.422419,0.599312,0.388476,-0.236023,-0.242949,1.026308,0.364575,5.109050,1.737696,2.573588,-7.580184,3.895184,-13.345906,0.108196,0.025716,0.000000,0.212491,-0.530421,-0.000000
3.760000,1.558206,-0.154818,-1.424761,0.597137,0.398826,-0.232251,-0.192258,1.043888,0.389636,5.027661,1.776194,2.438803,-8.631539,3.511353,-13.531682,0.110339,0.020406,0.000000,0.215737,-0.524986,0.000000
3.770000,1.564169,-0.150777,-1.427063,0.595464,0.409354,-0.228234,-0.142430,1.061818,0.413345,4.936170,1.809183,2.302770,-9.663274,3.078786,-13.666589,0.112509,0.015156,0.000000,0.218308,-0.518180,-0.000000
3.780000,1.570117,-0.146631,-1.429325,0.594285,0.420063,-0.223988,-0.093569,1.080056,0.435688,4.834470,1.837624,2.165636,-10.672598,2.602473,-13.752136,0.114703,0.009981,0.000000,0.220299,-0.509984,-0.000000
3.790000,1.576056,-0.142376,-1.431542,0.593589,0.430956,-0.219525,-0.045774,1.098554,0.456656,4.722802,1.861103,2.027887,-11.656716,2.087403,-13.789837,0.116913,0.004894,0.000000,0.221671,-0.500419,-0.000000
3.800000,1.581990,-0.138011,-1.433714,0.593366,0.442035,-0.214860,0.000855,1.117260,0.476245,4.601429,1.879259,1.889994,-12.612833,1.538565,-13.781203,0.119134,-0.000092,0.000000,0.222387,-0.489512,-0.000000
3.810000,1.587925,-0.133534,-1.435839,0.593602,0.453302,-0.210005,0.046225,1.136113,0.494455,4.470806,1.891086,1.752261,-13.542170,0.978438,-13.723931,0.121358,-0.004962,0.000000,0.222343,-0.477315,0.000000
3.820000,1.593864,-0.128944,-1.437914,0.594286,0.464758,-0.204975,0.090241,1.155063,0.511293,4.330879,1.897961,1.615488,-14.437427,0.392382,-13.623814,0.123579,-0.009704,0.000000,0.221696,-0.463828,-0.000000
3.830000,1.599812,-0.124238,-1.439938,0.595402,0.476403,-0.199784,0.132813,1.174052,0.526769,4.182182,1.898857,1.479921,-15.295320,-0.216757,-13.482831,0.125790,-0.014306,0.000000,0.220343,-0.449121,0.000000
3.840000,1.605773,-0.119415,-1.441909,0.596937,0.488239,-0.194444,0.173857,1.193020,0.540897,4.025108,1.893558,1.345961,-16.112564,-0.846130,-13.302960,0.127983,-0.018754,0.000000,0.218269,-0.433247,-0.000000
3.850000,1.611752,-0.114473,-1.443826,0.598874,0.500263,-0.188970,0.213289,1.211902,0.553695,3.860078,1.881876,1.213985,-16.885873,-1.492889,-13.086181,0.130153,-0.023038,0.000000,0.215463,-0.416270,-0.000000
3.860000,1.617752,-0.109410,-1.445688,0.601197,0.512476,-0.183375,0.251029,1.230640,0.565182,3.687157,1.864107,1.084143,-17.602089,-2.165686,-12.829152,0.132291,-0.027147,0.000000,0.211964,-0.398213,-0.000000
3.870000,1.623777,-0.104223,-1.447493,0.603889,0.524875,-0.177671,0.287009,1.249162,0.575387,3.507759,1.839042,0.957272,-18.269009,-2.848766,-12.539823,0.134389,-0.031070,0.000000,0.207662,-0.379250,-0.000000
3.880000,1.629831,-0.098911,-1.449241,0.606931,0.537458,-0.171871,0.321163,1.267398,0.584338,3.321948,1.807112,0.833445,-18.884557,-3.537871,-12.220824,0.136441,-0.034798,0.000000,0.202610,-0.359411,0.000000
3.890000,1.635917,-0.093473,-1.450931,0.610306,0.550222,-0.165988,0.353428,1.285281,0.592067,3.130246,1.768278,0.712946,-19.446657,-4.228744,-11.874786,0.138439,-0.038323,0.000000,0.196818,-0.338772,0.000000
3.900000,1.642038,-0.087906,-1.452561,0.613993,0.563163,-0.160034,0.383750,1.302741,0.598609,2.933200,1.722545,0.596031,-19.953232,-4.917130,-11.504338,0.140375,-0.041636,0.000000,0.190296,-0.317418,0.000000
3.910000,1.648198,-0.082209,-1.454131,0.617974,0.576275,-0.154020,0.412072,1.319705,0.604000,2.730982,1.669574,0.482874,-20.392312,-5.589073,-11.110659,0.142242,-0.044731,0.000000,0.183021,-0.295389,-0.000000
3.920000,1.654398,-0.076380,-1.455641,0.622228,0.589555,-0.147957,0.438356,1.336110,0.608280,2.525107,1.610363,0.373816,-20.772927,-6.251203,-10.698008,0.144033,-0.047602,0.000000,0.175112,-0.272871,0.000000
3.930000,1.660643,-0.070418,-1.457090,0.626734,0.602996,-0.141858,0.462563,1.351890,0.611490,2.315721,1.544593,0.268968,-21.094212,-6.900452,-10.269193,0.145742,-0.050244,0.000000,0.166545,-0.249904,0.000000
3.940000,1.666934,-0.064320,-1.458478,0.631472,0.616590,-0.135731,0.484660,1.366980,0.613673,2.103423,1.472408,0.168477,-21.355305,-7.533751,-9.827022,0.147362,-0.052653,0.000000,0.157347,-0.226571,0.000000
3.950000,1.673273,-0.058085,-1.459805,0.636420,0.630333,-0.129587,0.504623,1.381318,0.614874,1.888819,1.393982,0.072463,-21.555339,-8.148032,-9.374304,0.148887,-0.054824,0.000000,0.147545,-0.202959,-0.000000
3.960000,1.679663,-0.051713,-1.461070,0.641558,0.644214,-0.123437,0.522426,1.394836,0.615139,1.672008,1.309173,-0.018894,-21.680445,-8.731440,-8.916110,0.150311,-0.056756,0.000000,0.137136,-0.179098,0.000000
3.970000,1.686105,-0.045201,-1.462273,0.646862,0.658227,-0.117288,0.538060,1.407482,0.614512,1.454833,1.219041,-0.105741,-21.744357,-9.290769,-8.452706,0.151628,-0.058447,0.000000,0.126235,-0.155200,-0.000000
3.980000,1.692601,-0.038548,-1.463416,0.652312,0.672361,-0.111149,0.551521,1.419199,0.613040,1.237322,1.123444,-0.187939,-21.747804,-9.824025,-7.986623,0.152834,-0.059896,0.000000,0.114835,-0.131285,0.000000
3.990000,1.699152,-0.031753,-1.464496,0.657885,0.686607,-0.105030,0.562808,1.429933,0.610769,1.020076,1.022654,-0.265473,-21.691513,-10.329216,-7.520391,0.153923,-0.061104,0.000000,0.102972,-0.107429,-0.000000
4.000000,1.705759,-0.024815,-1.465516,0.663560,0.700956,-0.098936,0.571926,1.439636,0.607746,0.803689,0.916960,-0.338355,-21.576212,-10.804349,-7.056541,0.154892,-0.062071,0.000000,0.090679,-0.083709,-0.000000
4.010000,1.712423,-0.017734,-1.466475,0.669316,0.715396,-0.092877,0.578882,1.448253,0.604019,0.588323,0.806302,-0.406382,-21.391934,-11.238052,-6.603615,0.155735,-0.062798,0.000000,0.077958,-0.060153,0.000000
4.020000,1.719145,-0.010507,-1.467374,0.675131,0.729917,-0.086858,0.583699,1.455748,0.599633,0.375560,0.691890,-0.470181,-21.151413,-11.638860,-6.157396,0.156450,-0.063289,0.000000,0.064929,-0.036934,0.000000
4.030000,1.725926,-0.003135,-1.468213,0.680983,0.744508,-0.080886,0.586402,1.462078,0.594631,0.165475,0.573638,-0.529559,-20.856687,-12.005929,-5.719677,0.157033,-0.063547,0.000000,0.051587,-0.014067,0.000000
4.040000,1.732765,0.004383,-1.468992,0.686852,0.759155,-0.074968,0.587019,1.467209,0.589056,-0.041400,0.451887,-0.584609,-20.509794,-12.338414,-5.292253,0.157481,-0.063576,0.000000,0.037968,0.008386,-0.000000
4.050000,1.739663,0.012048,-1.469712,0.692717,0.773848,-0.069107,0.585586,1.471106,0.582952,-0.244554,0.326987,-0.635444,-20.112772,-12.635473,-4.876918,0.157791,-0.063379,0.000000,0.024109,0.030369,0.000000
4.060000,1.746619,0.019860,-1.470374,0.698557,0.788573,-0.063310,0.582140,1.473736,0.576364,-0.443736,0.198984,-0.681886,-19.661562,-12.888333,-4.483222,0.157962,-0.062962,0.000000,0.010017,0.051850,0.000000
4.070000,1.753634,0.027820,-1.470979,0.704353,0.803318,-0.057581,0.576727,1.475077,0.569328,-0.637906,0.068987,-0.724811,-19.165045,-13.105048,-4.104253,0.157991,-0.062331,0.000000,-0.004206,0.072724,0.000000
4.080000,1.760706,0.035927,-1.471526,0.710085,0.818070,-0.051925,0.569399,1.475109,0.561880,-0.826896,-0.062997,-0.764023,-18.626006,-13.285745,-3.740857,0.157877,-0.061492,0.000000,-0.018558,0.092971,0.000000
4.090000,1.767835,0.044181,-1.472017,0.715735,0.832816,-0.046345,0.560208,1.473812,0.554059,-1.010294,-0.196608,-0.799683,-18.047229,-13.430551,-3.393877,0.157620,-0.060450,0.000000,-0.033004,0.112550,0.000000
4.100000,1.775020,0.052583,-1.472453,0.721284,0.847542,-0.040845,0.549213,1.471173,0.545898,-1.187717,-0.331488,-0.831959,-17.431500,-13.539591,-3.064159,0.157217,-0.059215,0.000000,-0.047511,0.131422,-0.000000
4.110000,1.782260,0.061132,-1.472834,0.726713,0.862235,-0.035428,0.536474,1.467177,0.537434,-1.358883,-0.467505,-0.860746,-16.779743,-13.607325,-2.759630,0.156669,-0.057792,0.000000,-0.062065,0.149558,-0.000000
4.120000,1.789554,0.069827,-1.473162,0.732007,0.876881,-0.030097,0.522057,1.461821,0.528693,-1.523291,-0.603772,-0.886895,-16.096831,-13.640241,-2.473184,0.155976,-0.056189,0.000000,-0.076588,0.166914,-0.000000
4.130000,1.796900,0.078669,-1.473437,0.737149,0.891467,-0.024855,0.506031,1.455101,0.519705,-1.680726,-0.740197,-0.910270,-15.385774,-13.639159,-2.204798,0.155137,-0.054415,0.000000,-0.091071,0.183468,0.000000
4.140000,1.804297,0.087657,-1.473659,0.742123,0.905979,-0.019704,0.488467,1.447017,0.510496,-1.830923,-0.876445,-0.931051,-14.649586,-13.604902,-1.954449,0.154155,-0.052478,0.000000,-0.105482,0.199196,0.000000
4.150000,1.811742,0.096789,-1.473831,0.746914,0.920403,-0.014646,0.469438,1.437574,0.501092,-1.973644,-1.012187,-0.949419,-13.891278,-13.538289,-1.722115,0.153028,-0.050386,0.000000,-0.119791,0.214078,-0.000000
4.160000,1.819234,0.106064,-1.473953,0.751507,0.934726,-0.009683,0.449020,1.426775,0.491517,-2.108636,-1.147245,-0.965360,-13.115089,-13.436602,-1.512650,0.151759,-0.048149,0.000000,-0.133982,0.228089,0.000000
4.170000,1.826771,0.115483,-1.474025,0.755890,0.948934,-0.004816,0.427291,1.414633,0.481791,-2.235837,-1.280976,-0.979512,-12.322654,-13.304634,-1.320557,0.150349,-0.045774,0.000000,-0.147997,0.241231,-0.000000
4.180000,1.834351,0.125043,-1.474049,0.760049,0.963014,-0.000047,0.404330,1.401160,0.471933,-2.355045,-1.413241,-0.991827,-11.516835,-13.143640,-1.145216,0.148800,-0.043272,0.000000,-0.161822,0.253484,0.000000
4.190000,1.841972,0.134742,-1.474026,0.763972,0.976952,0.004622,0.380217,1.386374,0.461960,-2.466139,-1.543756,-1.002470,-10.700495,-12.954872,-0.986005,0.147113,-0.040651,0.000000,-0.175431,0.264840,-0.000000
4.200000,1.849630,0.144581,-1.473957,0.767650,0.990737,0.009192,0.355035,1.370292,0.451889,-2.569029,-1.672250,-1.011599,-9.876496,-12.739586,-0.842305,0.145292,-0.037921,0.000000,-0.188797,0.275293,0.000000
4.210000,1.857324,0.154557,-1.473843,0.771070,1.004354,0.013660,0.328866,1.352936,0.441734,-2.663517,-1.798527,-1.019278,-9.051119,-12.497448,-0.715714,0.143338,-0.035090,0.000000,-0.201902,0.284826,-0.000000
4.220000,1.865050,0.164668,-1.473684,0.774224,1.017791,0.018026,0.301792,1.334330,0.431507,-2.749891,-1.922191,-1.025861,-8.223388,-12.231493,-0.603121,0.141255,-0.032168,0.000000,-0.214708,0.293473,-0.000000
4.230000,1.872807,0.174912,-1.473483,0.777103,1.031037,0.022290,0.273896,1.314501,0.421220,-2.827985,-2.043082,-1.031384,-7.395745,-11.943170,-0.503636,0.139045,-0.029164,0.000000,-0.227199,0.301219,-0.000000
4.240000,1.880592,0.185288,-1.473239,0.779699,1.044077,0.026450,0.245260,1.293478,0.410883,-2.897814,-2.160984,-1.035975,-6.570636,-11.633928,-0.416367,0.136712,-0.026088,0.000000,-0.239352,0.308070,-0.000000
4.250000,1.888400,0.195793,-1.472954,0.782006,1.056902,0.030507,0.215967,1.271292,0.400503,-2.959415,-2.275696,-1.039749,-5.750502,-11.305216,-0.340421,0.134259,-0.022948,0.000000,-0.251148,0.314031,0.000000
4.260000,1.896231,0.206425,-1.472629,0.784017,1.069500,0.034460,0.186101,1.247975,0.390090,-3.012673,-2.387033,-1.042820,-4.942236,-10.958371,-0.274861,0.131690,-0.019754,0.000000,-0.262568,0.319094,-0.000000
4.270000,1.904080,0.217182,-1.472265,0.785726,1.081858,0.038309,0.155740,1.223563,0.379649,-3.058092,-2.494813,-1.045281,-4.143287,-10.594965,-0.218847,0.129009,-0.016513,0.000000,-0.273592,0.323314,0.000000
4.280000,1.911944,0.228061,-1.471863,0.787130,1.093967,0.042053,0.124965,1.198092,0.369186,-3.095576,-2.598882,-1.047225,-3.355555,-10.216462,-0.171494,0.126220,-0.013236,0.000000,-0.284204,0.326684,-0.000000
4.290000,1.919821,0.239060,-1.471424,0.788224,1.105817,0.045693,0.093855,1.171598,0.358706,-3.125247,-2.699097,-1.048736,-2.580937,-9.824323,-0.131915,0.123327,-0.009930,0.000000,-0.294388,0.329218,0.000000
4.300000,1.927708,0.250177,-1.470950,0.789006,1.117396,0.049227,0.062486,1.144123,0.348213,-3.147245,-2.795328,-1.049887,-1.821334,-9.420010,-0.099226,0.120334,-0.006604,0.000000,-0.304131,0.330935,-0.000000
4.310000,1.935600,0.261407,-1.470440,0.789473,1.128696,0.052657,0.030937,1.115706,0.337709,-3.161542,-2.887423,-1.050799,-1.083383,-9.005953,-0.071070,0.117245,-0.003266,0.000000,-0.313416,0.331832,-0.000000
4.320000,1.943496,0.272750,-1.469897,0.789625,1.139707,0.055981,-0.000721,1.086388,0.327198,-3.168762,-2.975373,-1.051391,-0.363663,-8.582527,-0.048212,0.114067,0.000076,0.000000,-0.322241,0.331979,0.000000
4.330000,1.951392,0.284200,-1.469321,0.789459,1.150421,0.059201,-0.032415,1.056213,0.316682,-3.168880,-3.059047,-1.051779,0.336508,-8.151077,-0.029945,0.110802,0.003414,0.000000,-0.330591,0.331374,0.000000
4.340000,1.959284,0.295757,-1.468713,0.788976,1.160829,0.062315,-0.064075,1.025222,0.306162,-3.162101,-3.138372,-1.052003,1.015813,-7.712945,-0.015563,0.107457,0.006742,0.000000,-0.338458,0.330042,0.000000
4.350000,1.967170,0.307416,-1.468075,0.788178,1.170923,0.065324,-0.095634,0.993460,0.295642,-3.148638,-3.213288,-1.052100,1.672933,-7.269476,-0.004360,0.104035,0.010051,0.000000,-0.345835,0.328008,-0.000000
4.360000,1.975047,0.319174,-1.467407,0.787064,1.180695,0.068228,-0.127024,0.960972,0.285120,-3.128532,-3.283680,-1.052177,2.301788,-6.823741,0.006344,0.100542,0.013335,0.000000,-0.352711,0.325277,0.000000
4.370000,1.982910,0.331029,-1.466711,0.785638,1.190140,0.071026,-0.158185,0.927801,0.274599,-3.102471,-3.349676,-1.052068,2.906406,-6.375143,0.015039,0.096982,0.016588,0.000000,-0.359097,0.321924,-0.000000
4.380000,1.990758,0.342976,-1.465987,0.783902,1.199249,0.073720,-0.189054,0.893993,0.264079,-3.070487,-3.411177,-1.051881,3.486050,-5.924816,0.022189,0.093361,0.019802,0.000000,-0.364984,0.317956,-0.000000
4.390000,1.998587,0.355013,-1.465237,0.781858,1.208018,0.076308,-0.219575,0.859593,0.253561,-3.032835,-3.468170,-1.051628,4.039986,-5.473890,0.028258,0.089684,0.022973,0.000000,-0.370370,0.313401,0.000000
4.400000,2.006395,0.367135,-1.464461,0.779511,1.216439,0.078791,-0.249693,0.824645,0.243046,-2.989776,-3.520656,-1.051318,4.567479,-5.023498,0.033711,0.085956,0.026094,0.000000,-0.375255,0.308289,-0.000000
4.410000,2.014177,0.379340,-1.463661,0.776866,1.224509,0.081169,-0.279352,0.789196,0.232534,-2.941407,-3.568564,-1.051024,5.063530,-4.576833,0.040766,0.082181,0.029159,0.000000,-0.379634,0.302634,0.000000
4.420000,2.021931,0.391624,-1.462838,0.773926,1.232222,0.083442,-0.308505,0.753288,0.222026,-2.888406,-3.612109,-1.050581,5.532190,-4.132713,0.047918,0.078365,0.032165,0.000000,-0.383529,0.296507,0.000000
4.430000,2.029654,0.403984,-1.461993,0.770697,1.239573,0.085609,-0.337105,0.716968,0.211523,-2.830856,-3.651230,-1.050064,5.973245,-3.692018,0.055416,0.074512,0.035106,0.000000,-0.386935,0.289920,0.000000
4.440000,2.037344,0.416414,-1.461126,0.767186,1.246560,0.087672,-0.365108,0.680278,0.201025,-2.769034,-3.685964,-1.049470,6.386483,-3.255628,0.063511,0.070627,0.037978,0.000000,-0.389857,0.282905,-0.000000
4.450000,2.044997,0.428913,-1.460240,0.763397,1.253178,0.089630,-0.392472,0.643263,0.190534,-2.703219,-3.716360,-1.048791,6.771691,-2.824421,0.072451,0.066716,0.040777,0.000000,-0.392302,0.275493,0.000000
4.460000,2.052611,0.441477,-1.459334,0.759339,1.259424,0.091483,-0.419158,0.605966,0.180049,-2.633552,-3.742386,-1.048063,7.125078,-2.401456,0.083640,0.062783,0.043499,0.000000,-0.394270,0.267701,-0.000000
4.470000,2.060183,0.454101,-1.458410,0.755017,1.265296,0.093231,-0.445132,0.568430,0.169573,-2.560652,-3.764314,-1.047166,7.450447,-1.985166,0.096032,0.058832,0.046141,0.000000,-0.395788,0.259596,0.000000
4.480000,2.067710,0.466781,-1.457470,0.750438,1.270792,0.094874,-0.470361,0.530694,0.159106,-2.484636,-3.782114,-1.046138,7.748023,-1.576166,0.109736,0.054869,0.048699,0.000000,-0.396858,0.251192,0.000000
4.490000,2.075191,0.479515,-1.456513,0.745612,1.275910,0.096413,-0.494815,0.492801,0.148651,-2.405783,-3.795863,-1.044967,8.018030,-1.175068,0.124859,0.050897,0.051171,0.000000,-0.397489,0.242520,-0.000000
4.500000,2.082622,0.492298,-1.455542,0.740545,1.280648,0.097847,-0.518468,0.454790,0.138207,-2.324367,-3.805644,-1.043636,8.260695,-0.782484,0.141509,0.046920,0.053555,0.000000,-0.397693,0.233610,0.000000
4.510000,2.090001,0.505127,-1.454557,0.735245,1.285005,0.099177,-0.541294,0.416702,0.127778,-2.240551,-3.811461,-1.042151,8.473500,-0.401117,0.160304,0.042944,0.055848,0.000000,-0.397473,0.224482,-0.000000
4.520000,2.097326,0.517997,-1.453559,0.729722,1.288982,0.100403,-0.563272,0.378573,0.117365,-2.154863,-3.813605,-1.040447,8.659747,-0.029234,0.180780,0.038972,0.058048,0.000000,-0.396861,0.215191,0.000000
4.530000,2.104595,0.530905,-1.452549,0.723983,1.292577,0.101525,-0.584385,0.340442,0.106970,-2.067443,-3.812078,-1.038530,8.819999,0.332807,0.202984,0.035008,0.060154,0.000000,-0.395862,0.205753,0.000000
4.540000,2.111805,0.543847,-1.451529,0.718037,1.295790,0.102543,-0.604616,0.302344,0.096595,-1.978548,-3.806982,-1.036382,8.954815,0.684649,0.226962,0.031056,0.062165,0.000000,-0.394487,0.196196,0.000000
4.550000,2.118955,0.556820,-1.450498,0.711893,1.298624,0.103457,-0.623952,0.264314,0.086243,-1.888429,-3.798421,-1.033984,9.064757,1.025936,0.252761,0.027120,0.064080,0.000000,-0.392752,0.186547,0.000000
4.560000,2.126042,0.569819,-1.449460,0.705561,1.301077,0.104267,-0.642381,0.226387,0.075916,-1.797260,-3.786427,-1.031322,9.148528,1.354463,0.280481,0.023203,0.065897,0.000000,-0.390661,0.176826,0.000000
4.570000,2.133065,0.582840,-1.448413,0.699049,1.303152,0.104975,-0.659895,0.188596,0.065618,-1.705454,-3.771286,-1.028371,9.208773,1.671947,0.310106,0.019308,0.067617,0.000000,-0.388249,0.167075,0.000000
4.580000,2.140023,0.595880,-1.447361,0.692366,1.304850,0.105580,-0.676488,0.150972,0.055350,-1.613160,-3.753025,-1.025114,9.246282,1.978256,0.341676,0.015439,0.069239,0.000000,-0.385519,0.157310,0.000000
4.590000,2.146912,0.608936,-1.446302,0.685522,1.306172,0.106082,-0.692157,0.113545,0.045117,-1.520602,-3.731758,-1.021531,9.261842,2.273260,0.375230,0.011598,0.070764,0.000000,-0.382488,0.147555,-0.000000
4.600000,2.153733,0.622003,-1.445239,0.678526,1.307121,0.106482,-0.706900,0.076346,0.034921,-1.427994,-3.707598,-1.017602,9.256241,2.556827,0.410807,0.007790,0.072191,0.000000,-0.379169,0.137832,0.000000
4.610000,2.160482,0.635077,-1.444173,0.671387,1.307700,0.106781,-0.720717,0.039403,0.024766,-1.335505,-3.680601,-1.013304,9.229262,2.827325,0.448353,0.004016,0.073521,0.000000,-0.375570,0.128158,-0.000000
4.620000,2.167160,0.648155,-1.443104,0.664115,1.307910,0.106978,-0.733612,0.002743,0.014656,-1.243429,-3.651023,-1.008624,9.182823,3.086309,0.488012,0.000279,0.074754,0.000000,-0.371721,0.118564,-0.000000
4.630000,2.173764,0.661234,-1.442034,0.656718,1.307756,0.107074,-0.745588,-0.033609,0.004595,-1.151910,-3.618913,-1.003537,9.117834,3.333831,0.529835,-0.003418,0.075892,0.000000,-0.367628,0.109064,0.000000
4.640000,2.180294,0.674309,-1.440963,0.649206,1.307239,0.107070,-0.756652,-0.069627,-0.005413,-1.061131,-3.584384,-0.998020,9.035209,3.569944,0.573873,-0.007073,0.076936,0.000000,-0.363307,0.099676,0.000000
4.650000,2.186748,0.687378,-1.439893,0.641588,1.306364,0.106966,-0.766813,-0.105289,-0.015364,-0.971262,-3.547552,-0.992052,8.935857,3.794702,0.620176,-0.010683,0.077886,0.000000,-0.358771,0.090417,-0.000000
4.660000,2.193125,0.700435,-1.438824,0.633873,1.305135,0.106763,-0.776081,-0.140570,-0.025253,-0.882457,-3.508484,-0.985610,8.820452,4.007058,0.668836,-0.014247,0.078745,0.000000,-0.354029,0.081302,-0.000000
4.670000,2.199425,0.713479,-1.437758,0.626069,1.303554,0.106461,-0.784467,-0.175451,-0.035075,-0.794892,-3.467399,-0.978669,8.690173,4.208299,0.719858,-0.017763,0.079513,0.000000,-0.349105,0.072348,-0.000000
4.680000,2.205646,0.726505,-1.436695,0.618186,1.301627,0.106062,-0.791983,-0.209912,-0.044825,-0.708700,-3.424355,-0.971205,8.545961,4.398612,0.773288,-0.021229,0.080193,0.000000,-0.344007,0.063569,0.000000
4.690000,2.211789,0.739511,-1.435637,0.610232,1.299357,0.105565,-0.798646,-0.243932,-0.054497,-0.624016,-3.379462,-0.963195,8.388758,4.578187,0.829170,-0.024643,0.080785,0.000000,-0.338749,0.054976,0.000000
4.700000,2.217851,0.752491,-1.434584,0.602216,1.296750,0.104972,-0.804469,-0.277495,-0.064087,-0.540965,-3.332826,-0.954613,8.219505,4.747209,0.887551,-0.028003,0.081293,0.000000,-0.333342,0.046582,-0.000000
4.710000,2.223833,0.765444,-1.433538,0.594146,1.293809,0.104283,-0.809471,-0.310583,-0.073587,-0.459678,-3.284525,-0.945449,8.039536,4.905182,0.948829,-0.031309,0.081718,0.000000,-0.327796,0.038398,-0.000000
4.720000,2.229734,0.778366,-1.432499,0.586029,1.290540,0.103501,-0.813669,-0.343181,-0.082993,-0.380226,-3.234726,-0.935644,7.849351,5.053062,1.012653,-0.034559,0.082062,0.000000,-0.322130,0.030431,-0.000000
4.730000,2.235553,0.791254,-1.431468,0.577875,1.286947,0.102624,-0.817082,-0.375273,-0.092298,-0.302723,-3.183497,-0.925188,7.649840,5.191121,1.079027,-0.037751,0.082328,0.000000,-0.316351,0.022691,-0.000000
4.740000,2.241291,0.804104,-1.430446,0.569690,1.283036,0.101655,-0.819730,-0.406846,-0.101495,-0.227257,-3.130935,-0.914055,7.441898,5.319629,1.147952,-0.040885,0.082517,0.000000,-0.310471,0.015185,-0.000000
4.750000,2.246947,0.816914,-1.429435,0.561483,1.278812,0.100594,-0.821634,-0.437887,-0.110577,-0.153910,-3.077135,-0.902220,7.226415,5.438860,1.219431,-0.043960,0.082633,0.000000,-0.304500,0.007920,0.000000
4.760000,2.252521,0.829680,-1.428435,0.553260,1.274280,0.099444,-0.822816,-0.468385,-0.119537,-0.082783,-3.022176,-0.889685,7.005098,5.548768,1.294158,-0.046975,0.082677,0.000000,-0.298447,0.000905,0.000000
4.770000,2.258012,0.842398,-1.427447,0.545029,1.269446,0.098204,-0.823297,-0.498327,-0.128368,-0.013864,-2.966175,-0.876360,6.777927,5.649979,1.371358,-0.049929,0.082652,0.000000,-0.292326,-0.005862,0.000000
4.780000,2.263421,0.855068,-1.426471,0.536796,1.264316,0.096877,-0.823101,-0.527705,-0.137062,0.052758,-2.909204,-0.862250,6.545694,5.742804,1.450951,-0.052821,0.082560,0.000000,-0.286144,-0.012375,-0.000000
4.790000,2.268748,0.867684,-1.425509,0.528569,1.258894,0.095463,-0.822250,-0.556509,-0.145610,0.117036,-2.851346,-0.847333,6.309193,5.827551,1.532854,-0.055652,0.082405,0.000000,-0.279910,-0.018629,-0.000000
4.800000,2.273993,0.880244,-1.424562,0.520354,1.253187,0.093965,-0.820768,-0.584729,-0.154006,0.178931,-2.792679,-0.831586,6.069217,5.904532,1.616985,-0.058420,0.082188,0.000000,-0.273632,-0.024623,0.000000
4.810000,2.279155,0.892747,-1.423630,0.512156,1.247201,0.092384,-0.818680,-0.612360,-0.162240,0.238367,-2.733279,-0.815023,5.827679,5.974048,1.704188,-0.061124,0.081912,0.000000,-0.267319,-0.030351,0.000000
4.820000,2.284236,0.905188,-1.422715,0.503982,1.240942,0.090721,-0.816009,-0.639393,-0.170303,0.295428,-2.673221,-0.797537,5.584114,6.036418,1.793340,-0.063766,0.081580,0.000000,-0.260980,-0.035822,-0.000000
4.830000,2.289235,0.917565,-1.421816,0.495838,1.234415,0.088978,-0.812779,-0.665822,-0.178187,0.350045,-2.612574,-0.779150,5.339180,6.091954,1.884248,-0.066344,0.081195,0.000000,-0.254620,-0.041031,0.000000
4.840000,2.294153,0.929875,-1.420935,0.487728,1.227628,0.087158,-0.809016,-0.691642,-0.185883,0.402209,-2.551404,-0.759847,5.093531,6.140967,1.976715,-0.068858,0.080759,0.000000,-0.248247,-0.045979,-0.000000
4.850000,2.298990,0.942116,-1.420073,0.479659,1.220585,0.085261,-0.804743,-0.716849,-0.193381,0.451915,-2.489775,-0.739611,4.847825,6.183768,2.070546,-0.071309,0.080274,0.000000,-0.241868,-0.050666,0.000000
4.860000,2.303746,0.954286,-1.419230,0.471635,1.213293,0.083291,-0.799987,-0.741437,-0.200673,0.499117,-2.427756,-0.718470,4.603992,6.220867,2.166505,-0.073696,0.079744,0.000000,-0.235490,-0.055091,-0.000000
4.870000,2.308422,0.966381,-1.418408,0.463661,1.205758,0.081249,-0.794769,-0.765403,-0.207747,0.543942,-2.365386,-0.696321,4.361257,6.252353,2.263319,-0.076019,0.079170,0.000000,-0.229116,-0.059267,-0.000000
4.880000,2.313019,0.978400,-1.417606,0.455741,1.197987,0.079137,-0.789116,-0.788743,-0.214596,0.586347,-2.302727,-0.673202,4.120120,6.278511,2.360676,-0.078278,0.078556,0.000000,-0.222753,-0.063190,0.000000
4.890000,2.317537,0.990340,-1.416825,0.447880,1.189985,0.076958,-0.783050,-0.811456,-0.221208,0.626351,-2.239832,-0.649107,3.881081,6.299629,2.458263,-0.080474,0.077903,0.000000,-0.216405,-0.066866,-0.000000
4.900000,2.321977,1.002199,-1.416067,0.440081,1.181760,0.074713,-0.776597,-0.833539,-0.227575,0.663978,-2.176750,-0.624037,3.644639,6.315992,2.555765,-0.082606,0.077215,0.000000,-0.210078,-0.070296,-0.000000
4.910000,2.326339,1.013975,-1.415331,0.432349,1.173317,0.072407,-0.769779,-0.854991,-0.233686,0.699205,-2.113538,-0.598023,3.412534,6.328175,2.653630,-0.084675,0.076494,0.000000,-0.203777,-0.073482,0.000000
4.920000,2.330624,1.025665,-1.414619,0.424687,1.164662,0.070041,-0.762620,-0.875810,-0.239532,0.732184,-2.050214,-0.571001,3.183874,6.336142,2.750692,-0.086682,0.075741,0.000000,-0.197503,-0.076439,-0.000000
4.930000,2.334833,1.037267,-1.413930,0.417098,1.155802,0.067617,-0.755143,-0.895995,-0.245103,0.762895,-1.986829,-0.543013,2.959008,6.340144,2.846546,-0.088626,0.074960,0.000000,-0.191261,-0.079167,0.000000
4.940000,2.338967,1.048780,-1.413267,0.409585,1.146744,0.065139,-0.747370,-0.915546,-0.250389,0.791378,-1.923423,-0.514075,2.738283,6.340435,2.940785,-0.090507,0.074152,0.000000,-0.185054,-0.081671,0.000000
4.950000,2.343025,1.060202,-1.412628,0.402151,1.137494,0.062610,-0.739323,-0.934464,-0.255381,0.817676,-1.860032,-0.484204,2.522049,6.337264,3.033004,-0.092327,0.073320,0.000000,-0.178884,-0.083956,0.000000
4.960000,2.347010,1.071529,-1.412015,0.394799,1.128057,0.060033,-0.731024,-0.952747,-0.260070,0.841791,-1.796700,-0.453437,2.311779,6.331168,3.123146,-0.094085,0.072467,0.000000,-0.172756,-0.086025,-0.000000
4.970000,2.350922,1.082762,-1.411427,0.387532,1.118441,0.057410,-0.722494,-0.970398,-0.264447,0.863878,-1.733431,-0.421766,2.106558,6.322079,3.210413,-0.095782,0.071593,0.000000,-0.166669,-0.087893,-0.000000
4.980000,2.354761,1.093898,-1.410867,0.380350,1.108651,0.054745,-0.713753,-0.987416,-0.268503,0.883939,-1.670267,-0.389240,1.906594,6.310215,3.294356,-0.097418,0.070701,0.000000,-0.160626,-0.089563,-0.000000
4.990000,2.358529,1.104935,-1.410333,0.373257,1.098695,0.052041,-0.704822,-1.003804,-0.272229,0.902028,-1.607235,-0.355892,1.712098,6.295793,3.374527,-0.098995,0.069794,0.000000,-0.154629,-0.091040,-0.000000
5.000000,2.362226,1.115871,-1.409826,0.366254,1.088577,0.049302,-0.695719,-1.019562,-0.275618,0.918200,-1.544359,-0.321763,1.523279,6.279028,3.450477,-0.100511,0.068872,0.000000,-0.148678,-0.092331,0.000000
5.010000,2.365854,1.126706,-1.409347,0.359343,1.078305,0.046530,-0.686464,-1.034692,-0.278662,0.932476,-1.481670,-0.286890,1.341288,6.260355,3.521558,-0.101968,0.067938,0.000000,-0.142775,-0.093440,-0.000000
5.020000,2.369413,1.137437,-1.408895,0.352525,1.067886,0.043729,-0.677075,-1.049196,-0.281353,0.945004,-1.419168,-0.251340,1.165279,6.239747,3.587546,-0.103367,0.066994,0.000000,-0.136920,-0.094382,0.000000
5.030000,2.372905,1.148063,-1.408472,0.345802,1.057324,0.040904,-0.667570,-1.063076,-0.283686,0.955802,-1.356881,-0.215158,0.995348,6.217395,3.648016,-0.104707,0.066041,0.000000,-0.131113,-0.095160,-0.000000
5.040000,2.376330,1.158583,-1.408077,0.339174,1.046626,0.038057,-0.657965,-1.076334,-0.285655,0.964932,-1.294826,-0.178400,0.831590,6.193489,3.702543,-0.105989,0.065081,0.000000,-0.125353,-0.095781,-0.000000
5.050000,2.379689,1.168995,-1.407711,0.332643,1.035799,0.035192,-0.648277,-1.088973,-0.287253,0.972455,-1.233016,-0.141128,0.674099,6.168220,3.750703,-0.107214,0.064115,0.000000,-0.119642,-0.096251,-0.000000
5.060000,2.382983,1.179298,-1.407374,0.326209,1.024849,0.032313,-0.638521,-1.100995,-0.288475,0.978406,-1.171471,-0.103377,0.523691,6.141919,3.791286,-0.108382,0.063145,0.000000,-0.113979,-0.096575,0.000000
5.070000,2.386213,1.189491,-1.407065,0.319873,1.013781,0.029424,-0.628713,-1.112403,-0.289319,0.982918,-1.110187,-0.065291,0.379653,6.114618,3.824750,-0.109494,0.062173,0.000000,-0.108361,-0.096767,-0.000000
5.080000,2.389381,1.199574,-1.406785,0.313635,1.002603,0.026528,-0.618867,-1.123200,-0.289780,0.986021,-1.049181,-0.026907,0.241990,6.086490,3.850766,-0.110550,0.061199,0.000000,-0.102788,-0.096831,-0.000000
5.090000,2.392486,1.209543,-1.406534,0.307496,0.991319,0.023630,-0.608997,-1.133388,-0.289856,0.987779,-0.988460,0.011699,0.110710,6.057707,3.869007,-0.111550,0.060225,0.000000,-0.097258,-0.096772,-0.000000
5.100000,2.395531,1.219400,-1.406312,0.301455,0.979937,0.020732,-0.599116,-1.142970,-0.289546,0.988256,-0.928029,0.050446,-0.014182,6.028442,3.879143,-0.112495,0.059252,0.000000,-0.091771,-0.096599,0.000000
5.110000,2.398516,1.229142,-1.406120,0.295513,0.968462,0.017840,-0.589237,-1.151949,-0.288847,0.987496,-0.867897,0.089305,-0.132166,5.998995,3.879539,-0.113385,0.058281,0.000000,-0.086326,-0.096315,0.000000
5.120000,2.401442,1.238769,-1.405956,0.289670,0.956900,0.014957,-0.579370,-1.160329,-0.287760,0.985611,-0.808055,0.128067,-0.243810,5.969397,3.871336,-0.114222,0.057313,0.000000,-0.080917,-0.095932,-0.000000
5.130000,2.404310,1.248279,-1.405820,0.283926,0.945257,0.012086,-0.569528,-1.168112,-0.286286,0.982641,-0.748509,0.166703,-0.349171,5.939805,3.854364,-0.115004,0.056350,0.000000,-0.075545,-0.095455,-0.000000
5.140000,2.407120,1.257673,-1.405714,0.278280,0.933540,0.009232,-0.559721,-1.175300,-0.284427,0.978648,-0.689258,0.205124,-0.448305,5.910376,3.828456,-0.115733,0.055392,0.000000,-0.070206,-0.094890,0.000000
5.150000,2.409875,1.266950,-1.405636,0.272731,0.921753,0.006399,-0.549958,-1.181898,-0.282184,0.973695,-0.630300,0.243241,-0.541269,5.881267,3.793443,-0.116408,0.054440,0.000000,-0.064897,-0.094243,-0.000000
5.160000,2.412575,1.276108,-1.405586,0.267280,0.909904,0.003590,-0.540250,-1.187907,-0.279562,0.967830,-0.571640,0.281028,-0.627770,5.852847,3.747492,-0.117031,0.053494,0.000000,-0.059619,-0.093518,0.000000
5.170000,2.415221,1.285148,-1.405564,0.261926,0.897997,0.000809,-0.530604,-1.193331,-0.276566,0.961144,-0.513251,0.318235,-0.708256,5.825036,3.692305,-0.117600,0.052557,0.000000,-0.054363,-0.092727,-0.000000
5.180000,2.417814,1.294068,-1.405570,0.256668,0.886039,-0.001940,-0.521030,-1.198173,-0.273200,0.953684,-0.455136,0.354844,-0.782824,5.797966,3.627917,-0.118118,0.051627,0.000000,-0.049130,-0.091871,-0.000000
5.190000,2.420355,1.302868,-1.405603,0.251505,0.874035,-0.004654,-0.511533,-1.202435,-0.269471,0.945507,-0.397289,0.390763,-0.851575,5.771769,3.554365,-0.118583,0.050706,0.000000,-0.043914,-0.090959,0.000000
5.200000,2.422845,1.311549,-1.405662,0.246437,0.861992,-0.007329,-0.502122,-1.206120,-0.265387,0.936672,-0.339698,0.425900,-0.914605,5.746576,3.471684,-0.118996,0.049795,0.000000,-0.038714,-0.089994,-0.000000
5.210000,2.425284,1.320108,-1.405749,0.241462,0.849915,-0.009961,-0.492802,-1.209230,-0.260955,0.927224,-0.282370,0.460237,-0.971774,5.722933,3.378122,-0.119357,0.048894,0.000000,-0.033529,-0.088981,0.000000
5.220000,2.427674,1.328547,-1.405862,0.236581,0.837810,-0.012547,-0.483579,-1.211768,-0.256185,0.917244,-0.225253,0.493513,-1.023450,5.700506,3.275722,-0.119667,0.048003,0.000000,-0.028348,-0.087928,0.000000
5.230000,2.430016,1.336864,-1.406000,0.231791,0.825682,-0.015083,-0.474459,-1.213736,-0.251088,0.906773,-0.168355,0.525723,-1.069761,5.679377,3.164739,-0.119924,0.047123,0.000000,-0.023172,-0.086840,-0.000000
5.240000,2.432310,1.345060,-1.406163,0.227091,0.813537,-0.017567,-0.465445,-1.215136,-0.245675,0.895866,-0.111661,0.556780,-1.110836,5.659627,3.045429,-0.120130,0.046254,0.000000,-0.017996,-0.085720,-0.000000
5.250000,2.434558,1.353135,-1.406351,0.222481,0.801381,-0.019996,-0.456542,-1.215970,-0.239957,0.884574,-0.055158,0.586604,-1.146803,5.641335,2.918045,-0.120284,0.045396,0.000000,-0.012818,-0.084575,0.000000
5.260000,2.436760,1.361088,-1.406563,0.217960,0.789219,-0.022366,-0.447755,-1.216240,-0.233946,0.872939,0.001142,0.615180,-1.177592,5.625307,2.781205,-0.120387,0.044550,0.000000,-0.007637,-0.083406,0.000000
5.270000,2.438918,1.368919,-1.406798,0.213526,0.777058,-0.024674,-0.439085,-1.215947,-0.227658,0.861029,0.057321,0.642277,-1.203554,5.610811,2.637003,-0.120437,0.043716,0.000000,-0.002441,-0.082222,0.000000
5.280000,2.441031,1.376629,-1.407056,0.209178,0.764902,-0.026918,-0.430535,-1.215094,-0.221106,0.848883,0.113363,0.667897,-1.224841,5.597839,2.485893,-0.120435,0.042894,0.000000,0.002768,-0.081026,0.000000
5.290000,2.443101,1.384217,-1.407336,0.204915,0.752758,-0.029095,-0.422108,-1.213680,-0.214305,0.836547,0.169283,0.691973,-1.241606,5.586386,2.328332,-0.120382,0.042084,0.000000,0.007995,-0.079821,-0.000000
5.300000,2.445130,1.391684,-1.407638,0.200735,0.740630,-0.031203,-0.413804,-1.211708,-0.207272,0.824066,0.225096,0.714444,-1.254000,5.576442,2.164774,-0.120275,0.041286,0.000000,0.013243,-0.078611,-0.000000
5.310000,2.447116,1.399030,-1.407960,0.196638,0.728526,-0.033240,-0.405627,-1.209179,-0.200021,0.811474,0.280774,0.735299,-1.261979,5.569076,1.994454,-0.120117,0.040500,0.000000,0.018509,-0.077400,-0.000000
5.320000,2.449063,1.406255,-1.408302,0.192622,0.716449,-0.035203,-0.397575,-1.206093,-0.192572,0.798831,0.336434,0.754371,-1.265917,5.563073,1.819197,-0.119905,0.039726,0.000000,0.023809,-0.076193,0.000000
5.330000,2.450969,1.413359,-1.408664,0.188686,0.704405,-0.037091,-0.389650,-1.202451,-0.184940,0.786168,0.392040,0.771668,-1.265990,5.558293,1.639610,-0.119641,0.038965,0.000000,0.029138,-0.074992,0.000000
5.340000,2.452837,1.420343,-1.409044,0.184829,0.692402,-0.038901,-0.381852,-1.198253,-0.177144,0.773523,0.447603,0.787151,-1.262374,5.554597,1.456297,-0.119322,0.038216,0.000000,0.034499,-0.073801,-0.000000
5.350000,2.454666,1.427207,-1.409442,0.181049,0.680442,-0.040633,-0.374180,-1.193499,-0.169203,0.760932,0.503135,0.800784,-1.255247,5.551846,1.269862,-0.118950,0.037478,0.000000,0.039895,-0.072623,-0.000000
5.360000,2.456458,1.433952,-1.409856,0.177345,0.668533,-0.042285,-0.366633,-1.188191,-0.161135,0.748421,0.558588,0.812563,-1.244572,5.551290,1.080318,-0.118524,0.036753,0.000000,0.045321,-0.071460,0.000000
5.370000,2.458213,1.440578,-1.410287,0.173716,0.656680,-0.043855,-0.359211,-1.182327,-0.152958,0.736042,0.614100,0.822410,-1.230765,5.551229,0.888935,-0.118044,0.036039,0.000000,0.050792,-0.070317,-0.000000
5.380000,2.459932,1.447086,-1.410733,0.170160,0.644889,-0.045344,-0.351912,-1.175909,-0.144693,0.723816,0.669613,0.830338,-1.214027,5.551354,0.696391,-0.117508,0.035337,0.000000,0.056302,-0.069195,0.000000
5.390000,2.461617,1.453476,-1.411194,0.166677,0.633164,-0.046749,-0.344734,-1.168935,-0.136358,0.711770,0.725127,0.836337,-1.194561,5.551357,0.503365,-0.116918,0.034645,0.000000,0.061852,-0.068096,-0.000000
5.400000,2.463266,1.459750,-1.411668,0.163265,0.621512,-0.048071,-0.337675,-1.161406,-0.127972,0.699933,0.780639,0.840406,-1.172570,5.550927,0.310533,-0.116271,0.033965,0.000000,0.067441,-0.067023,0.000000
5.410000,2.464882,1.465907,-1.412155,0.159923,0.609938,-0.049308,-0.330734,-1.153323,-0.119556,0.688318,0.836081,0.842544,-1.148036,5.551336,0.118721,-0.115569,0.033296,0.000000,0.073063,-0.065977,0.000000
5.420000,2.466465,1.471949,-1.412654,0.156650,0.598447,-0.050462,-0.323908,-1.144684,-0.111128,0.676969,0.891591,0.842779,-1.121409,5.550500,-0.071559,-0.114810,0.032637,0.000000,0.078731,-0.064962,0.000000
5.430000,2.468015,1.477876,-1.413164,0.153445,0.587046,-0.051531,-0.317194,-1.135491,-0.102707,0.665896,0.947085,0.841121,-1.092918,5.547916,-0.259646,-0.113994,0.031988,0.000000,0.084436,-0.063977,0.000000
5.440000,2.469534,1.483690,-1.413684,0.150306,0.575739,-0.052516,-0.310589,-1.125743,-0.094312,0.655116,1.002542,0.837595,-1.062792,5.543081,-0.444883,-0.113121,0.031349,0.000000,0.090176,-0.063025,-0.000000
5.450000,2.471022,1.489391,-1.414214,0.147233,0.564533,-0.053417,-0.304091,-1.115440,-0.085961,0.644645,1.057937,0.832235,-1.031260,5.535491,-0.626608,-0.112190,0.030719,0.000000,0.095946,-0.062106,-0.000000
5.460000,2.472479,1.494981,-1.414752,0.144224,0.553432,-0.054235,-0.297695,-1.104585,-0.077673,0.634488,1.113179,0.825042,-0.998370,5.526205,-0.803286,-0.111202,0.030099,0.000000,0.101739,-0.061221,-0.000000
5.470000,2.473906,1.500460,-1.415298,0.141278,0.542443,-0.054971,-0.291400,-1.093177,-0.069466,0.624673,1.168378,0.816145,-0.964554,5.512968,-0.975241,-0.110156,0.029487,0.000000,0.107561,-0.060372,-0.000000
5.480000,2.475305,1.505830,-1.415851,0.138395,0.531571,-0.055625,-0.285201,-1.081218,-0.061356,0.615199,1.223423,0.805555,-0.930066,5.495084,-1.141920,-0.109051,0.028884,0.000000,0.113402,-0.059558,-0.000000
5.490000,2.476675,1.511092,-1.416410,0.135574,0.520821,-0.056199,-0.279095,-1.068709,-0.053360,0.606073,1.278262,0.793327,-0.895157,5.471861,-1.302771,-0.107888,0.028289,0.000000,0.119254,-0.058780,0.000000
5.500000,2.478016,1.516247,-1.416975,0.132813,0.510198,-0.056693,-0.273078,-1.055654,-0.045495,0.597296,1.332840,0.779521,-0.860078,5.442604,-1.457240,-0.106666,0.027701,0.000000,0.125110,-0.058037,0.000000
5.510000,2.479331,1.521296,-1.417544,0.130112,0.499709,-0.057109,-0.267148,-1.042054,-0.037776,0.588866,1.387040,0.764147,-0.824970,5.407943,-1.603316,-0.105385,0.027121,0.000000,0.130958,-0.057330,-0.000000
5.520000,2.480619,1.526242,-1.418117,0.127470,0.489359,-0.057449,-0.261300,-1.027914,-0.030217,0.580791,1.440914,0.747414,-0.790209,5.365697,-1.742084,-0.104047,0.026548,0.000000,0.136798,-0.056657,0.000000
5.530000,2.481881,1.531084,-1.418693,0.124886,0.479153,-0.057714,-0.255531,-1.013237,-0.022832,0.573060,1.494325,0.729331,-0.756061,5.315011,-1.873170,-0.102650,0.025982,0.000000,0.142617,-0.056018,0.000000
5.540000,2.483117,1.535825,-1.419271,0.122359,0.469096,-0.057906,-0.249837,-0.998029,-0.015634,0.565667,1.547184,0.709977,-0.722792,5.255028,-1.996203,-0.101194,0.025422,0.000000,0.148402,-0.055412,0.000000
5.550000,2.484328,1.540466,-1.419851,0.119889,0.459194,-0.058027,-0.244216,-0.982296,-0.008636,0.558601,1.599392,0.689435,-0.690667,5.184891,-2.110806,-0.099682,0.024868,0.000000,0.154142,-0.054838,0.000000
5.560000,2.485515,1.545010,-1.420431,0.117475,0.449452,-0.058079,-0.238664,-0.966044,-0.001850,0.551848,1.650809,0.667719,-0.659932,5.104648,-2.214812,-0.098112,0.024319,0.000000,0.159820,-0.054293,-0.000000
5.570000,2.486678,1.549456,-1.421012,0.115115,0.439875,-0.058065,-0.233178,-0.949283,0.004715,0.545395,1.701405,0.645088,-0.630874,5.012429,-2.309863,-0.096485,0.023776,0.000000,0.165429,-0.053776,-0.000000
5.580000,2.487817,1.553808,-1.421592,0.112811,0.430468,-0.057986,-0.227756,-0.932020,0.011049,0.539224,1.751014,0.621552,-0.603761,4.907267,-2.395802,-0.094803,0.023239,0.000000,0.170950,-0.053285,-0.000000
5.590000,2.488934,1.558066,-1.422171,0.110560,0.421236,-0.057845,-0.222393,-0.914266,0.017143,0.533313,1.799504,0.597203,-0.578860,4.788195,-2.472478,-0.093067,0.022706,0.000000,0.176369,-0.052818,-0.000000
5.600000,2.490029,1.562233,-1.422749,0.108363,0.412184,-0.057644,-0.217088,-0.896034,0.022990,0.527639,1.846729,0.572134,-0.556439,4.654247,-2.539736,-0.091277,0.022178,0.000000,0.181666,-0.052371,0.000000
5.610000,2.491101,1.566310,-1.423324,0.106218,0.403317,-0.057386,-0.211840,-0.877336,0.028583,0.522179,1.892522,0.546368,-0.536877,4.504809,-2.595599,-0.089434,0.021654,0.000000,0.186823,-0.051942,-0.000000
5.620000,2.492153,1.570300,-1.423896,0.104126,0.394639,-0.057073,-0.206644,-0.858189,0.033916,0.516896,1.936753,0.520173,-0.520316,4.338518,-2.641959,-0.087541,0.021135,0.000000,0.191824,-0.051528,-0.000000
5.630000,2.493184,1.574204,-1.424465,0.102085,0.386155,-0.056708,-0.201501,-0.838607,0.038985,0.511762,1.979233,0.493561,-0.507011,4.154364,-2.678885,-0.085598,0.020619,0.000000,0.196645,-0.051124,0.000000
5.640000,2.494195,1.578024,-1.425030,0.100096,0.377868,-0.056294,-0.196409,-0.818610,0.043786,0.506744,2.019777,0.466626,-0.497216,3.951336,-2.706447,-0.083608,0.020108,0.000000,0.201268,-0.050728,0.000000
5.650000,2.495186,1.581762,-1.425591,0.098157,0.369784,-0.055833,-0.191366,-0.798219,0.048317,0.501805,2.058193,0.439463,-0.491185,3.728426,-2.724714,-0.081573,0.019601,0.000000,0.205667,-0.050336,0.000000
5.660000,2.496158,1.585420,-1.426147,0.096268,0.361905,-0.055329,-0.186372,-0.777454,0.052574,0.496925,2.094288,0.412101,-0.489617,3.484336,-2.732201,-0.079496,0.019098,0.000000,0.209824,-0.049945,-0.000000
5.670000,2.497112,1.589001,-1.426698,0.094429,0.354236,-0.054783,-0.181427,-0.756341,0.056559,0.492019,2.127820,0.384779,-0.492266,3.218379,-2.730721,-0.077378,0.018599,0.000000,0.213708,-0.049546,0.000000
5.680000,2.498047,1.592505,-1.427243,0.092639,0.346779,-0.054199,-0.176532,-0.734907,0.060270,0.487065,2.158579,0.357516,-0.499331,2.929578,-2.720533,-0.075223,0.018104,0.000000,0.217298,-0.049137,0.000000
5.690000,2.498965,1.595937,-1.427781,0.090898,0.339539,-0.053578,-0.171686,-0.713180,0.063709,0.482017,2.186332,0.330397,-0.511013,2.616960,-2.701899,-0.073033,0.017614,0.000000,0.220566,-0.048714,-0.000000
5.700000,2.499865,1.599297,-1.428314,0.089205,0.332517,-0.052925,-0.166892,-0.691191,0.066879,0.476828,2.210836,0.303505,-0.527510,2.279549,-2.675076,-0.070812,0.017128,0.000000,0.223486,-0.048271,-0.000000
5.710000,2.500749,1.602588,-1.428840,0.087560,0.325716,-0.052242,-0.162150,-0.668974,0.069780,0.471535,2.231904,0.276879,-0.551168,1.914689,-2.639259,-0.068564,0.016646,0.000000,0.226038,-0.047812,-0.000000
5.720000,2.501617,1.605812,-1.429359,0.085962,0.319138,-0.051530,-0.157462,-0.646566,0.072418,0.465884,2.249116,0.250697,-0.579777,1.523292,-2.595904,-0.066293,0.016169,0.000000,0.228177,-0.047311,0.000000
