time,x,y,z,vx,vy,vz,ax,ay,az,jx,jy,jz,sx,sy,sz
0.000000,-2.313792,-2.641931,1.369760,0.007482,0.003113,0.006436,0.017312,-0.115772,-0.007624,1.560224,0.413889,0.374687,30.883174,24.690823,9.666878
0.050000,-2.313418,-2.641775,1.370082,0.008347,-0.002675,0.006055,0.095324,-0.095077,0.011110,3.104383,1.648431,0.858031,40.024892,30.487374,12.651297
0.100000,-2.312957,-2.642198,1.370366,0.017014,-0.006394,0.007547,0.327751,0.049071,0.078179,5.562713,3.462627,1.639817,34.381400,17.690632,9.794663
0.150000,-2.311716,-2.642415,1.370837,0.041122,0.002232,0.013873,0.651595,0.251185,0.175092,6.542523,3.417494,1.837497,7.565054,-9.780162,-1.771855
0.200000,-2.308845,-2.641975,1.371753,0.082173,0.018724,0.025056,0.982003,0.390821,0.261929,6.319218,2.484611,1.462631,-10.034571,-15.073983,-10.211748
0.250000,-2.303499,-2.640542,1.373342,0.139323,0.041314,0.040065,1.283517,0.499646,0.321355,5.539065,1.910095,0.816323,-18.951742,-11.166894,-14.163379
0.300000,-2.294912,-2.637844,1.375759,0.210525,0.068689,0.057192,1.535910,0.581830,0.343561,4.424044,1.367921,0.046293,-24.342129,-10.959350,-15.264949
0.350000,-2.282446,-2.633673,1.379061,0.292914,0.099497,0.074422,1.725921,0.636439,0.325984,3.104853,0.814160,-0.710172,-27.280943,-10.949225,-13.843910
0.400000,-2.265621,-2.627894,1.383201,0.383117,0.132333,0.089790,1.846395,0.663246,0.272544,1.695950,0.272999,-1.338098,-28.098036,-10.375204,-10.473654
0.450000,-2.244135,-2.620440,1.388040,0.477553,0.165822,0.101676,1.895516,0.663738,0.192175,0.295049,-0.223360,-1.757538,-27.138612,-9.217458,-5.938161
0.500000,-2.217866,-2.611312,1.393369,0.572669,0.198706,0.109007,1.875900,0.640910,0.096790,-1.017911,-0.648747,-1.931914,-24.748159,-7.615694,-1.117606
0.550000,-2.186868,-2.600569,1.398941,0.665143,0.229913,0.111355,1.793725,0.598864,-0.001017,-2.179767,-0.984929,-1.869298,-21.260043,-5.725080,3.154844
0.600000,-2.151352,-2.588321,1.404505,0.752041,0.258593,0.108906,1.657923,0.542417,-0.090140,-3.143916,-1.221255,-1.616429,-17.012243,-3.692783,6.223090
0.650000,-2.111664,-2.574710,1.409832,0.830935,0.284154,0.102341,1.479334,0.476738,-0.162660,-3.880991,-1.354208,-1.246989,-12.351164,-1.655420,7.697304
0.700000,-2.068258,-2.559905,1.414739,0.899975,0.306267,0.092640,1.269824,0.406996,-0.214839,-4.379032,-1.386797,-0.846699,-7.608756,0.268273,7.489542
0.750000,-2.021666,-2.544083,1.419096,0.957918,0.324854,0.080857,1.041430,0.338059,-0.247329,-4.641867,-1.327381,-0.498035,-3.063648,1.989681,5.796626
0.800000,-1.972466,-2.527420,1.422824,1.004118,0.340073,0.067907,0.805637,0.274258,-0.264642,-4.685397,-1.187829,-0.267036,1.093880,3.460568,3.041782
0.850000,-1.921254,-2.510076,1.425886,1.038481,0.352280,0.054393,0.572891,0.219276,-0.274033,-4.532479,-0.981324,-0.193857,4.776091,4.675072,-0.207666
0.900000,-1.868618,-2.492192,1.428264,1.061407,0.362000,0.040504,0.352389,0.176126,-0.284028,-4.207788,-0.720322,-0.287803,7.983342,5.660844,-3.328969
0.950000,-1.815114,-2.473876,1.429937,1.073720,0.369892,0.025990,0.152112,0.147243,-0.302813,-3.734145,-0.415239,-0.526754,10.763945,6.460810,-5.725918
1.000000,-1.761246,-2.455203,1.430863,1.076618,0.376724,0.010222,-0.021025,0.134602,-0.336703,-3.131393,-0.074241,-0.860395,13.159825,7.110204,-6.897849
1.050000,-1.707452,-2.436204,1.430959,1.071618,0.383353,-0.007680,-0.161027,0.139819,-0.388853,-2.418162,0.295781,-1.216539,15.153924,7.614869,-6.495463
1.100000,-1.654084,-2.416867,1.430095,1.060515,0.390706,-0.028663,-0.262841,0.164180,-0.458357,-1.616001,0.687246,-1.509941,16.635532,7.936842,-4.366042
1.150000,-1.601400,-2.397133,1.428093,1.045334,0.399771,-0.053516,-0.322628,0.208544,-0.539847,-0.754609,1.089465,-1.653143,17.396539,7.992145,-0.589087
1.200000,-1.549551,-2.376890,1.424743,1.028253,0.411561,-0.082648,-0.338302,0.273127,-0.623671,0.123653,1.486461,-1.568850,17.165294,7.663710,4.501576
1.250000,-1.498575,-2.355977,1.419828,1.011503,0.427083,-0.115883,-0.310262,0.357190,-0.696732,0.961920,1.855836,-1.202985,15.675778,6.828990,10.319172
1.300000,-1.448401,-2.334182,1.413155,0.997226,0.447280,-0.152321,-0.242110,0.458710,-0.743970,1.691231,2.169360,-0.536932,12.759190,5.397582,16.062174
1.350000,-1.398852,-2.311249,1.404596,0.987292,0.472954,-0.190280,-0.141139,0.574126,-0.750425,2.237840,2.395594,0.403232,8.435095,3.349908,20.800238
1.400000,-1.349671,-2.286887,1.394127,0.983112,0.504692,-0.227363,-0.018326,0.698270,-0.703647,2.534740,2.504351,1.543091,2.973510,0.765053,23.609000
1.450000,-1.300541,-2.260780,1.381859,0.985460,0.542781,-0.260645,0.112335,0.824561,-0.596116,2.535190,2.472100,2.764132,-3.098457,-2.173877,23.739379
1.500000,-1.251125,-2.232608,1.368062,0.994346,0.587149,-0.286975,0.235193,0.945480,-0.427233,2.224895,2.286963,3.917029,-9.059184,-5.203588,20.790743
1.550000,-1.201107,-2.202065,1.353162,1.008979,0.637329,-0.303368,0.334824,1.053257,-0.204413,1.629272,1.951741,4.843207,-14.118780,-8.031736,14.844953
1.600000,-1.150227,-2.168875,1.337725,1.027828,0.692474,-0.307416,0.398120,1.140654,0.057087,0.813017,1.483789,5.401525,-17.585604,-10.404732,6.513374
1.650000,-1.098324,-2.132818,1.322420,1.048791,0.751395,-0.297659,0.416126,1.201636,0.335739,-0.129288,0.911268,5.494544,-19.033113,-12.173237,-3.139545
1.700000,-1.045348,-2.093736,1.307959,1.069441,0.812638,-0.273842,0.385191,1.231781,0.606542,-1.090295,0.266466,5.087570,-18.409700,-13.329484,-12.793412
1.750000,-0.991380,-2.051554,1.295036,1.087310,0.874573,-0.237005,0.307097,1.228283,0.844496,-1.970258,-0.421681,4.215203,-16.037886,-13.994121,-21.135034
1.800000,-0.936617,-2.006279,1.284259,1.100151,0.935466,-0.189393,0.188165,1.189613,1.028062,-2.694083,-1.132947,2.974067,-12.495103,-14.350829,-27.107559
1.850000,-0.881365,-1.958007,1.276097,1.106127,0.993534,-0.134199,0.037688,1.114988,1.141903,-3.219768,-1.856764,1.504447,-8.428226,-14.553071,-30.083317
1.900000,-0.826005,-1.906925,1.270839,1.103919,1.046965,-0.075202,-0.133811,1.003936,1.178506,-3.536906,-2.588254,-0.034265,-4.380657,-14.640846,-29.936069
1.950000,-0.770973,-1.853311,1.268577,1.092746,1.093928,-0.016348,-0.316002,0.856163,1.138477,-3.657834,-3.320848,-1.489160,-0.693322,-14.500044,-27.019262
2.000000,-0.716730,-1.797533,1.269204,1.072319,1.132581,0.038645,-0.499595,0.671851,1.029590,-3.606238,-4.038258,-2.736191,2.499826,-13.878745,-22.070762
2.050000,-0.663741,-1.740053,1.272441,1.042786,1.161113,0.086611,-0.676626,0.452337,0.864858,-3.407852,-4.708723,-3.696236,5.202228,-12.452624,-16.064818
2.100000,-0.612451,-1.681421,1.277865,1.004657,1.177815,0.125131,-0.840380,0.200979,0.659967,-3.086015,-5.283521,-4.342673,7.457083,-9.914039,-10.029380
2.150000,-0.563275,-1.622271,1.284954,0.958748,1.181211,0.152607,-0.985228,-0.076015,0.430590,-2.662143,-5.700127,-4.699174,9.269783,-6.054159,-4.851318
2.200000,-0.516577,-1.563300,1.293126,0.906134,1.170214,0.168190,-1.106594,-0.369033,0.190049,-2.159037,-5.888936,-4.827805,10.578094,-0.817495,-1.103262
2.250000,-0.472662,-1.505250,1.301773,0.848089,1.144307,0.171612,-1.201131,-0.664909,-0.052190,-1.604334,-5.781876,-4.809500,11.269289,5.674456,1.070136
2.300000,-0.431768,-1.448869,1.310287,0.786021,1.103723,0.162971,-1.267028,-0.947221,-0.290901,-1.032108,-5.321491,-4.720791,11.226631,13.120624,1.981115
2.350000,-0.394060,-1.394877,1.318070,0.721386,1.049585,0.142522,-1.304342,-1.197058,-0.524269,-0.481671,-4.469814,-4.611389,10.386484,21.046354,2.336152
2.400000,-0.359629,-1.343911,1.324539,0.655587,0.984017,0.110544,-1.315195,-1.394202,-0.752039,0.006540,-3.216855,-4.487176,8.789518,28.804822,3.087995
2.450000,-0.328501,-1.296476,1.329125,0.589866,0.910165,0.067318,-1.303688,-1.518743,-0.972987,0.397281,-1.589332,-4.302589,6.612202,35.577740,5.214977
2.500000,-0.300643,-1.252894,1.331271,0.525218,0.832143,0.013245,-1.275467,-1.553136,-1.182298,0.667761,0.340918,-3.965678,4.170784,40.414021,9.449971
2.550000,-0.275979,-1.213261,1.330449,0.462320,0.754851,-0.050912,-1.236912,-1.484651,-1.369555,0.814360,2.452070,-3.357592,1.889403,42.323000,16.010378
2.600000,-0.254411,-1.177409,1.326180,0.401527,0.683677,-0.123710,-1.194031,-1.307929,-1.518058,0.856701,4.573219,-2.364640,0.227950,40.427631,24.403691
2.650000,-0.235827,-1.144894,1.318078,0.342917,0.624059,-0.202717,-1.151242,-1.027330,-1.606019,0.837154,6.494834,-0.917223,-0.417653,34.215937,33.380833
2.700000,-0.220119,-1.115003,1.305908,0.286402,0.580944,-0.284312,-1.110315,-0.658445,-1.609780,0.814936,7.994812,0.973443,0.175276,23.836035,41.105848
2.750000,-0.207186,-1.086799,1.289647,0.231885,0.558214,-0.363695,-1.069748,-0.227848,-1.508675,0.854682,8.878437,3.193362,1.962062,10.284303,45.565401
2.800000,-0.196930,-1.059182,1.269539,0.179428,0.558160,-0.435179,-1.024847,0.229398,-1.290444,1.011142,9.023243,5.529983,4.593311,-4.623931,45.128032
2.850000,-0.189244,-1.030983,1.246129,0.129400,0.581154,-0.492740,-0.968634,0.674476,-0.955676,1.314013,8.416044,7.706165,7.466594,-18.568375,39.060654
2.900000,-0.183990,-1.001067,1.220265,0.082564,0.625607,-0.530747,-0.893446,1.071003,-0.519827,1.757801,7.166405,9.436048,9.863428,-29.288584,27.793023
2.950000,-0.180987,-0.968423,1.193054,0.040056,0.688254,-0.544723,-0.792854,1.391116,-0.012071,2.300356,5.487186,10.485467,11.130399,-35.199252,12.816946
3.000000,-0.179985,-0.932241,1.165793,0.003279,0.764719,-0.531954,-0.663410,1.619721,0.528719,2.870841,3.646480,10.717743,10.843209,-35.808580,-3.729450
3.050000,-0.180659,-0.891951,1.139859,-0.026285,0.850226,-0.491851,-0.505770,1.755764,1.059703,3.384677,1.906328,10.112522,8.903197,-31.794177,-19.617057
3.100000,-0.182613,-0.847219,1.116607,-0.047298,0.940295,-0.425984,-0.324943,1.810354,1.539972,3.761161,0.467062,8.756037,5.546634,-24.742692,-33.017486
3.150000,-0.185389,-0.797921,1.097261,-0.058779,1.031262,-0.337853,-0.129654,1.802471,1.935307,3.939340,-0.567942,6.810773,1.277505,-16.676491,-42.786611
3.200000,-0.188491,-0.744092,1.082822,-0.060264,1.120542,-0.232453,0.068992,1.753560,2.221049,3.888911,-1.200587,4.477376,-3.246394,-9.535273,-48.499583
3.250000,-0.191415,-0.685867,1.074015,-0.051880,1.206618,-0.115749,0.259237,1.682412,2.383044,3.614701,-1.521469,1.960815,-7.339759,-4.757836,-50.294986
3.300000,-0.193679,-0.623431,1.071247,-0.034340,1.288784,0.005851,0.430462,1.601413,2.417130,3.154935,-1.676371,-0.552122,-10.401735,-3.045556,-48.638133
3.350000,-0.194849,-0.556989,1.074600,-0.008834,1.366759,0.125965,0.574731,1.514775,2.327832,2.574527,-1.826025,-2.902998,-11.999739,-4.320527,-44.109688
3.400000,-0.194563,-0.486755,1.083844,0.023133,1.440261,0.238634,0.687914,1.418811,2.126831,1.954962,-2.108423,-4.963091,-11.922603,-7.843217,-37.282721
3.450000,-0.192536,-0.412962,1.098464,0.059957,1.508640,0.338648,0.770227,1.303933,1.831523,1.382267,-2.610346,-6.631270,-10.205831,-12.433744,-28.697095
3.500000,-0.188567,-0.335891,1.117708,0.100156,1.570654,0.421787,0.826141,1.157776,1.463704,0.934378,-3.351798,-7.832801,-7.131683,-16.740654,-18.898551
3.550000,-0.182521,-0.255897,1.140642,0.142571,1.624418,0.485018,0.863665,0.968753,1.048243,0.669099,-4.284412,-8.521125,-3.208284,-19.508925,-8.492861
3.600000,-0.174310,-0.173449,1.166210,0.186522,1.667530,0.526611,0.893051,0.729335,0.611591,0.613550,-5.302690,-8.682087,0.883168,-19.811339,1.829163
3.650000,-0.163868,-0.089144,1.193304,0.231876,1.697351,0.546177,0.925020,0.438484,0.180034,0.757416,-6.265546,-8.338209,4.386129,-17.210267,11.318600
3.700000,-0.151122,-0.003714,1.220828,0.279024,1.711378,0.544614,0.968793,0.102780,-0.222230,1.052163,-7.023717,-7.550227,6.593942,-11.810789,19.244242
3.750000,-0.135966,0.081994,1.247765,0.328756,1.707629,0.523954,1.030236,-0.263888,-0.574989,1.416810,-7.446625,-6.413785,7.023116,-4.207416,25.001744
3.800000,-0.118247,0.167049,1.273223,0.382048,1.684989,0.487116,1.110473,-0.641882,-0.863608,1.754474,-7.444459,-5.050052,5.591498,4.636112,28.228581
3.850000,-0.097761,0.250493,1.296477,0.439803,1.643441,0.437593,1.205684,-1.008334,-1.079994,1.975960,-6.983013,-3.590927,2.619267,13.561272,28.882672
3.900000,-0.074266,0.331393,1.316983,0.502616,1.584156,0.379116,1.308069,-1.340183,-1.222701,2.016401,-6.088331,-2.161785,-1.329665,21.419568,27.257953
3.950000,-0.047499,0.408908,1.334388,0.570610,1.509423,0.315323,1.407324,-1.617167,-1.296172,1.842993,-4.841056,-0.865131,-5.592601,27.263831,23.931918
4.000000,-0.017205,0.482336,1.348515,0.643349,1.422439,0.249499,1.492369,-1.824289,-1.309214,1.457141,-3.361948,0.231407,-9.534873,30.502413,19.645742
4.050000,0.016835,0.551152,1.359338,0.719847,1.326994,0.184402,1.553038,-1.953362,-1.273032,0.889506,-1.790815,1.099443,-12.668824,30.976187,15.140608
4.100000,0.054779,0.615035,1.366955,0.798652,1.227103,0.122196,1.581319,-2.003371,-1.199270,0.190259,-0.264329,1.745468,-14.709458,28.925237,11.002898
4.150000,0.096701,0.673862,1.371558,0.877979,1.126657,0.064475,1.572064,-1.979795,-1.098485,-0.581440,1.101709,2.199733,-15.568997,24.874391,7.570949
4.200000,0.142577,0.727701,1.373403,0.955859,1.029123,0.012347,1.523175,-1.893200,-0.979297,-1.366641,2.223110,2.502562,-15.318182,19.494479,4.927014
4.250000,0.192287,0.776775,1.372792,1.030296,0.937337,-0.033455,1.435400,-1.757484,-0.848229,-2.113258,3.051157,2.692434,-14.133355,13.480066,2.959599
4.300000,0.245607,0.821434,1.370057,1.099399,0.853375,-0.072476,1.311849,-1.588084,-0.710053,-2.779977,3.571116,2.798522,-12.245153,7.460373,1.458952
4.350000,0.302226,0.862112,1.365545,1.161481,0.778528,-0.104460,1.157402,-1.400372,-0.568376,-3.337774,3.797194,2.838329,-9.896852,1.943765,0.208752
4.400000,0.361755,0.899287,1.359611,1.215139,0.713338,-0.129313,0.978072,-1.208365,-0.426220,-3.769662,3.765493,2.819398,-7.314869,-2.709406,-0.950208
4.450000,0.423740,0.933446,1.352613,1.259289,0.657692,-0.147082,0.780436,-1.023823,-0.286437,-4.069261,3.526253,2.743308,-4.690879,-6.291548,-2.093047
4.500000,0.487684,0.965056,1.344903,1.293183,0.610956,-0.157957,0.571146,-0.855739,-0.151889,-4.238750,3.136338,2.610093,-2.173667,-8.735887,-3.216330
4.550000,0.553059,0.994542,1.336818,1.316403,0.572118,-0.162271,0.356561,-0.710189,-0.025427,-4.286627,2.652664,2.421675,0.131717,-10.092602,-4.264390
4.600000,0.619324,1.022268,1.328676,1.328839,0.539937,-0.160500,0.142483,-0.590473,0.090278,-4.225578,2.127078,2.183654,2.159928,-10.497417,-5.162729
4.650000,0.685942,1.048535,1.320768,1.330651,0.513071,-0.153243,-0.065997,-0.497481,0.192938,-4.070635,1.602923,1.905402,3.878398,-10.137465,-5.847244
4.700000,0.752389,1.073575,1.313351,1.322239,0.490189,-0.141206,-0.264580,-0.430181,0.280818,-3.837738,1.113331,1.598929,5.279274,-9.219213,-6.282577
4.750000,0.818166,1.097554,1.306647,1.304193,0.470053,-0.125162,-0.449771,-0.386148,0.352831,-3.542707,0.681001,1.277145,6.371627,-7.942251,-6.467814
4.800000,0.882809,1.120580,1.300835,1.277262,0.451574,-0.105923,-0.618851,-0.362081,0.408533,-3.200575,0.319106,0.952148,7.174966,-6.481015,-6.431522
4.850000,0.945893,1.142712,1.296055,1.242308,0.433845,-0.084308,-0.769828,-0.354238,0.448046,-2.825211,0.032900,0.633992,7.714547,-4.974823,-6.220204
4.900000,1.007040,1.163965,1.292404,1.200279,0.416150,-0.061118,-0.901372,-0.358791,0.471932,-2.429121,-0.178376,0.330128,8.018528,-3.525231,-5.884680
4.950000,1.065920,1.184327,1.289943,1.152171,0.397965,-0.037115,-1.012740,-0.372075,0.481059,-2.023358,-0.319623,0.045524,8.116699,-2.198694,-5.468222
5.000000,1.122257,1.203761,1.288693,1.099005,0.378943,-0.013012,-1.103708,-0.390753,0.476484,-1.617451,-0.398246,-0.216694,8.040342,-1.032215,-4.998902
5.050000,1.175821,1.222221,1.288642,1.041800,0.358890,0.010533,-1.174485,-0.411900,0.459389,-1.219323,-0.422845,-0.454366,7.822623,-0.040247,-4.487174
5.100000,1.226437,1.239650,1.289746,0.981556,0.337753,0.032927,-1.225640,-0.433037,0.431048,-0.835188,-0.402270,-0.665412,7.498900,0.778376,-3.928379
5.150000,1.273977,1.255996,1.291935,0.919236,0.315586,0.053638,-1.258004,-0.452127,0.392848,-0.469433,-0.345007,-0.847204,7.106358,1.434256,-3.308992
5.200000,1.318360,1.271209,1.295110,0.855756,0.292540,0.072211,-1.272583,-0.467538,0.346327,-0.124553,-0.258845,-0.996311,6.682463,1.942329,-2.614830
5.250000,1.359552,1.285250,1.299156,0.791978,0.268833,0.088271,-1.270460,-0.478011,0.293217,0.198813,-0.150774,-1.108687,6.261965,2.317911,-1.839301
5.300000,1.397558,1.298092,1.303937,0.728710,0.244739,0.101533,-1.252702,-0.482616,0.235459,0.501644,-0.027054,-1.180241,5.872456,2.573860,-0.989877
5.350000,1.432423,1.309724,1.309309,0.666708,0.220571,0.111817,-1.220295,-0.480717,0.175193,0.786058,0.106612,-1.207674,5.528878,2.718766,-0.091460
5.400000,1.464229,1.320149,1.315119,0.606681,0.196667,0.119052,-1.174096,-0.471954,0.114691,1.054532,0.244823,-1.189387,5.227796,2.756083,0.814077
5.450000,1.493091,1.329391,1.321214,0.549298,0.173376,0.123286,-1.114842,-0.456234,0.056254,1.308838,0.382220,-1.126267,4.942502,2.684111,1.672079
5.500000,1.519159,1.337487,1.327447,0.495196,0.151044,0.124678,-1.043212,-0.433732,0.002065,1.548782,0.513234,-1.022179,4.620150,2.496673,2.422204
5.550000,1.542611,1.344495,1.333682,0.444977,0.130002,0.123492,-0.959964,-0.404911,-0.045964,1.770853,0.631887,-0.884046,4.181823,2.184262,3.006956
5.600000,1.563656,1.350487,1.339797,0.399200,0.110553,0.120081,-0.866127,-0.370544,-0.086340,1.966964,0.731660,-0.721484,3.525867,1.735393,3.379915
5.650000,1.582531,1.355550,1.345690,0.358364,0.092948,0.114858,-0.763267,-0.331745,-0.118112,2.123440,0.805427,-0.546055,2.534242,1.138121,3.512020
5.700000,1.599493,1.359782,1.351283,0.322873,0.077378,0.108270,-0.653783,-0.290001,-0.140945,2.220388,0.845472,-0.370282,1.081940,0.383550,3.394720
5.750000,1.614818,1.363288,1.356517,0.292986,0.063948,0.100764,-0.541229,-0.247198,-0.155140,2.231634,0.843782,-0.206583,-0.944300,-0.517701,3.039609
5.800000,1.628791,1.366177,1.361359,0.268750,0.052658,0.092756,-0.430620,-0.205623,-0.161604,2.125958,0.793702,-0.066321,-3.576102,-1.453787,2.474913
5.850000,1.641693,1.368554,1.365793,0.249924,0.043386,0.084603,-0.328633,-0.167827,-0.161773,1.874024,0.698403,0.040908,-3.041682,0.063637,5.339396
5.900000,1.653784,1.370515,1.369819,0.235887,0.035876,0.076579,-0.243217,-0.135782,-0.157513,1.821790,0.800066,0.467619,-3.139302,1.166378,7.793321
5.950000,1.665282,1.372142,1.373451,0.225602,0.029807,0.068852,-0.146454,-0.087821,-0.115011,1.560093,0.815041,0.820241,-6.368800,-1.292185,3.228176
6.000000,1.676344,1.373496,1.376705,0.221242,0.027094,0.065078,-0.087208,-0.054278,-0.075489,1.184910,0.670848,0.790436,-7.503663,-2.883863,-0.596082
