time,x,y,z,vx,vy,vz,ax,ay,az,jx,jy,jz,sx,sy,sz
0.000000,-2.313792,-2.641931,1.369760,0.009281,0.017727,0.007844,-0.081925,-0.838427,-0.066832,-1.148077,18.337384,0.249075,160.316353,-285.260291,34.012121
0.010000,-2.313703,-2.641793,1.369835,0.008430,0.010213,0.007193,-0.085754,-0.668665,-0.062700,0.346693,15.678626,0.571553,138.960160,-247.108668,30.504972
0.020000,-2.313623,-2.641721,1.369904,0.007612,0.004271,0.006600,-0.075671,-0.523644,-0.055516,1.637426,13.383155,0.859602,119.493691,-212.573762,27.126213
0.030000,-2.313550,-2.641703,1.369968,0.006957,-0.000330,0.006092,-0.053624,-0.399909,-0.045618,2.742558,11.415680,1.114504,101.824653,-181.480108,23.875419
0.040000,-2.313483,-2.641724,1.370026,0.006574,-0.003788,0.005696,-0.021380,-0.294349,-0.033332,3.679602,9.742667,1.337536,85.860751,-153.652246,20.752170
0.050000,-2.313418,-2.641775,1.370082,0.006558,-0.006269,0.005432,0.019463,-0.204180,-0.018969,4.465149,8.332334,1.529971,71.509689,-128.914712,17.756044
0.060000,-2.313350,-2.641847,1.370135,0.006987,-0.007914,0.005322,0.067470,-0.126927,-0.002830,5.114865,7.154656,1.693079,58.679174,-107.092043,14.886619
0.070000,-2.313276,-2.641931,1.370189,0.007927,-0.008843,0.005381,0.121357,-0.060406,0.014799,5.643493,6.181362,1.828125,47.276910,-88.008778,12.143472
0.080000,-2.313190,-2.642022,1.370244,0.009430,-0.009152,0.005622,0.179982,-0.002707,0.033643,6.064856,5.385934,1.936368,37.210604,-71.489454,9.526182
0.090000,-2.313086,-2.642112,1.370302,0.011539,-0.008921,0.006057,0.242339,0.047823,0.053441,6.391851,4.743611,2.019066,28.387960,-57.358609,7.034326
0.100000,-2.312957,-2.642198,1.370366,0.014286,-0.008215,0.006693,0.307545,0.092598,0.073943,6.636453,4.231385,2.077471,20.716684,-45.440779,4.667484
0.110000,-2.312798,-2.642275,1.370437,0.017697,-0.007084,0.007537,0.374831,0.132813,0.094914,6.809715,3.828004,2.112831,14.104481,-35.560503,2.425233
0.120000,-2.312601,-2.642339,1.370517,0.021788,-0.005570,0.008592,0.443535,0.169456,0.116127,6.921765,3.513968,2.126390,8.459057,-27.542318,0.307150
0.130000,-2.312360,-2.642385,1.370609,0.026570,-0.003704,0.009860,0.513093,0.203331,0.137373,6.981811,3.271535,2.119387,3.688116,-21.210761,-1.687185
0.140000,-2.312067,-2.642412,1.370715,0.032051,-0.001511,0.011339,0.583026,0.235072,0.158451,6.998135,3.084716,2.093057,-0.300635,-16.390371,-3.558195
0.150000,-2.311716,-2.642415,1.370837,0.038231,0.000992,0.013028,0.652935,0.265163,0.179174,6.978098,2.939276,2.048633,-3.599491,-12.905684,-5.306302
0.160000,-2.311300,-2.642391,1.370976,0.045108,0.003788,0.014921,0.722488,0.293954,0.199367,6.928137,2.822735,1.987339,-6.300747,-10.581238,-6.931928
0.170000,-2.310812,-2.642338,1.371136,0.052678,0.006867,0.017013,0.791416,0.321678,0.218868,6.853767,2.724368,1.910401,-8.496698,-9.241571,-8.435494
0.180000,-2.310244,-2.642253,1.371317,0.060934,0.010219,0.019295,0.859498,0.348472,0.237527,6.759580,2.635206,1.819035,-10.279638,-8.711221,-9.817423
0.190000,-2.309591,-2.642133,1.371522,0.069865,0.013834,0.021760,0.926554,0.374389,0.255205,6.649244,2.548031,1.714456,-11.741862,-8.814724,-11.078137
0.200000,-2.308845,-2.641975,1.371753,0.079461,0.017703,0.024396,0.992438,0.399420,0.271776,6.525504,2.457383,1.597875,-12.975664,-9.376618,-12.218057
0.210000,-2.307999,-2.641778,1.372011,0.089701,0.021831,0.027191,1.057327,0.423071,0.287127,6.418009,2.318919,1.470501,-14.776128,-9.195044,-13.237726
0.220000,-2.307049,-2.641538,1.372297,0.100593,0.026176,0.030134,1.120740,0.445801,0.301154,6.261789,2.226884,1.333526,-16.446704,-9.246617,-14.137431
0.230000,-2.305986,-2.641253,1.372614,0.112110,0.030744,0.033210,1.182510,0.467604,0.313769,6.089487,2.133375,1.188151,-17.993630,-9.481557,-14.917579
0.240000,-2.304804,-2.640922,1.372962,0.124237,0.035525,0.036404,1.242480,0.488458,0.324893,5.902308,2.036807,1.035571,-19.423146,-9.850082,-15.578576
0.250000,-2.303499,-2.640542,1.373342,0.136954,0.040510,0.039703,1.300510,0.508326,0.334460,5.701395,1.936094,0.876976,-20.741491,-10.302412,-16.120831
0.260000,-2.302063,-2.640111,1.373756,0.150240,0.045691,0.043088,1.356484,0.527030,0.342410,5.489519,1.818336,0.712936,-21.997629,-10.477849,-16.529262
0.270000,-2.300492,-2.639628,1.374204,0.164075,0.051051,0.046545,1.410260,0.544687,0.348707,5.263696,1.712583,0.546086,-23.149842,-10.675599,-16.821660
0.280000,-2.298780,-2.639090,1.374687,0.178437,0.056582,0.050057,1.461722,0.561275,0.353324,5.026866,1.604789,0.376882,-24.199136,-10.883952,-17.000330
0.290000,-2.296922,-2.638496,1.375205,0.193302,0.062273,0.053606,1.510764,0.576776,0.356241,4.780053,1.494907,0.206450,-25.146520,-11.091199,-17.067573
0.300000,-2.294912,-2.637844,1.375759,0.208644,0.068113,0.057176,1.557293,0.591167,0.357452,4.524272,1.383008,0.035894,-25.992999,-11.285629,-17.025695
0.310000,-2.292747,-2.637133,1.376349,0.224439,0.074093,0.060750,1.601217,0.604393,0.356953,4.259943,1.265862,-0.134517,-26.724866,-11.369298,-16.856548
0.320000,-2.290422,-2.636362,1.376974,0.240660,0.080199,0.064310,1.642469,0.616482,0.354769,3.989441,1.151857,-0.301810,-27.359646,-11.427291,-16.585391
0.330000,-2.287933,-2.635529,1.377635,0.257279,0.086419,0.067840,1.680986,0.627428,0.350928,3.713065,1.037406,-0.465901,-27.900147,-11.458456,-16.217029
0.340000,-2.285275,-2.634633,1.378331,0.274270,0.092743,0.071323,1.716714,0.637229,0.345465,3.431743,0.922782,-0.625842,-28.349178,-11.461643,-15.756272
0.350000,-2.282446,-2.633673,1.379061,0.291604,0.099160,0.074744,1.749607,0.645884,0.338428,3.146377,0.808270,-0.780734,-28.709548,-11.435701,-15.207927
0.360000,-2.279442,-2.632649,1.379826,0.309253,0.105658,0.078087,1.779630,0.653388,0.329863,2.857745,0.693416,-0.930373,-28.981706,-11.360476,-14.560430
0.370000,-2.276260,-2.631560,1.380623,0.327187,0.112224,0.081336,1.806755,0.659756,0.319843,2.566913,0.580309,-1.072421,-29.171110,-11.256148,-13.836965
0.380000,-2.272898,-2.630405,1.381452,0.345378,0.118849,0.084479,1.830963,0.664998,0.308440,2.274588,0.468386,-1.206882,-29.280858,-11.123893,-13.044344
0.390000,-2.269352,-2.629183,1.382312,0.363797,0.125520,0.087501,1.852244,0.669128,0.295733,1.981551,0.357921,-1.333100,-29.314049,-10.964888,-12.189378
0.400000,-2.265621,-2.627894,1.383201,0.382413,0.132228,0.090390,1.870594,0.672162,0.281808,1.688552,0.249174,-1.450484,-29.273780,-10.780310,-11.278880
0.410000,-2.261703,-2.626538,1.384119,0.401199,0.138960,0.093133,1.886019,0.674117,0.266752,1.396436,0.142333,-1.558795,-29.166341,-10.569752,-10.312584
0.420000,-2.257597,-2.625115,1.385064,0.420124,0.145707,0.095721,1.898528,0.675016,0.250665,1.105593,0.037785,-1.656915,-28.991249,-10.336167,-9.305247
0.430000,-2.253300,-2.623624,1.386033,0.439160,0.152457,0.098144,1.908138,0.674881,0.233647,0.816828,-0.064318,-1.744789,-28.751209,-10.080925,-8.264548
0.440000,-2.248813,-2.622066,1.387026,0.458277,0.159201,0.100391,1.914873,0.673739,0.215804,0.530776,-0.163766,-1.822121,-28.448929,-9.805397,-7.198166
0.450000,-2.244135,-2.620440,1.388040,0.477448,0.165928,0.102457,1.918764,0.671615,0.197241,0.248048,-0.260363,-1.888692,-28.087118,-9.510952,-6.113780
0.460000,-2.239264,-2.618747,1.389074,0.496643,0.172630,0.104334,1.919848,0.668542,0.178068,-0.030718,-0.353883,-1.944216,-27.669966,-9.200066,-5.022758
0.470000,-2.234202,-2.616988,1.390126,0.515835,0.179296,0.106017,1.918165,0.664548,0.158393,-0.305104,-0.444261,-1.988972,-27.198514,-8.872868,-3.928637
0.480000,-2.228948,-2.615161,1.391194,0.534997,0.185918,0.107501,1.913762,0.659668,0.138325,-0.574516,-0.531290,-2.022802,-26.675288,-8.530594,-2.838645
0.490000,-2.223502,-2.613269,1.392276,0.554102,0.192487,0.108782,1.906693,0.653934,0.117973,-0.838446,-0.614826,-2.045783,-26.102813,-8.174478,-1.760009
0.500000,-2.217866,-2.611312,1.393369,0.573122,0.198994,0.109860,1.897013,0.647383,0.097445,-1.096416,-0.694738,-2.058064,-25.483615,-7.805756,-0.699957
0.510000,-2.212040,-2.609290,1.394472,0.592033,0.205432,0.110731,1.884785,0.640052,0.076852,-1.348020,-0.770881,-2.059350,-24.818990,-7.426222,0.321194
0.520000,-2.206026,-2.607204,1.395583,0.610810,0.211793,0.111397,1.870076,0.631979,0.056292,-1.592712,-0.843203,-2.051161,-24.112843,-7.036484,1.310911
0.530000,-2.199824,-2.605054,1.396699,0.629427,0.218069,0.111857,1.852955,0.623201,0.035862,-1.830147,-0.911581,-2.033255,-23.367850,-6.637706,2.263568
0.540000,-2.193438,-2.602843,1.397819,0.647861,0.224254,0.112115,1.833498,0.613760,0.015658,-2.059949,-0.975931,-2.006032,-22.586687,-6.231056,3.173543
0.550000,-2.186868,-2.600569,1.398941,0.666089,0.230342,0.112171,1.811783,0.603696,-0.004230,-2.281769,-1.036180,-1.969945,-21.772030,-5.817700,4.035212
0.560000,-2.180117,-2.598236,1.400062,0.684090,0.236326,0.112031,1.787890,0.593051,-0.023705,-2.495355,-1.092254,-1.924742,-20.924827,-5.399108,4.823627
0.570000,-2.173187,-2.595843,1.401181,0.701840,0.242201,0.111699,1.761904,0.581865,-0.042699,-2.700250,-1.144134,-1.872801,-20.049693,-4.976105,5.554854
0.580000,-2.166081,-2.593392,1.402296,0.719321,0.247962,0.111179,1.733914,0.570182,-0.061138,-2.896265,-1.191766,-1.813847,-19.149516,-4.549820,6.225633
0.590000,-2.158801,-2.590884,1.403404,0.736512,0.253604,0.110478,1.704010,0.558044,-0.078955,-3.083166,-1.235123,-1.748500,-18.227182,-4.121384,6.832706
0.600000,-2.151352,-2.588321,1.404505,0.753395,0.259122,0.109602,1.672282,0.545494,-0.096089,-3.260745,-1.274190,-1.677416,-17.285580,-3.691924,7.372815
0.610000,-2.143734,-2.585702,1.405595,0.769952,0.264512,0.108558,1.638826,0.532575,-0.112477,-3.428810,-1.308924,-1.600424,-16.327924,-3.263521,7.821118
0.620000,-2.135954,-2.583031,1.406675,0.786166,0.269772,0.107355,1.603738,0.519330,-0.128083,-3.587244,-1.339422,-1.520266,-15.356734,-2.836237,8.198584
0.630000,-2.128012,-2.580307,1.407742,0.802022,0.274898,0.105999,1.567114,0.505801,-0.142871,-3.735909,-1.365656,-1.436690,-14.374857,-2.411085,8.504596
0.640000,-2.119914,-2.577533,1.408795,0.817504,0.279887,0.104500,1.529053,0.492031,-0.156808,-3.874715,-1.387654,-1.350414,-13.385140,-1.989077,8.738540
0.650000,-2.111664,-2.574710,1.409832,0.832598,0.284738,0.102866,1.489653,0.478062,-0.169872,-4.003595,-1.405451,-1.262162,-12.390432,-1.571226,8.899799
0.660000,-2.103264,-2.571839,1.410852,0.847293,0.289448,0.101106,1.449016,0.463937,-0.182039,-4.122371,-1.419014,-1.171870,-11.397252,-1.160609,8.967731
0.670000,-2.094719,-2.568922,1.411853,0.861575,0.294016,0.099228,1.407239,0.449695,-0.193309,-4.231377,-1.428591,-1.082151,-10.404324,-0.755921,8.964201
0.680000,-2.086034,-2.565959,1.412836,0.875434,0.298441,0.097242,1.364421,0.435378,-0.203683,-4.330466,-1.434155,-0.992818,-9.414047,-0.357924,8.891046
0.690000,-2.077212,-2.562953,1.413798,0.888860,0.302724,0.095157,1.320662,0.421025,-0.213169,-4.419675,-1.435774,-0.904556,-8.428815,0.032622,8.750102
0.700000,-2.068258,-2.559905,1.414739,0.901844,0.306862,0.092982,1.276060,0.406676,-0.221780,-4.499067,-1.433529,-0.818035,-7.451028,0.414958,8.543208
0.710000,-2.059176,-2.556817,1.415657,0.914379,0.310857,0.090724,1.230716,0.392369,-0.229531,-4.568468,-1.427388,-0.733289,-6.489664,0.785366,8.256626
0.720000,-2.049972,-2.553689,1.416553,0.926456,0.314710,0.088394,1.184723,0.378140,-0.236456,-4.628605,-1.417721,-0.652409,-5.539732,1.146406,7.909674
0.730000,-2.040649,-2.550523,1.417425,0.938071,0.318420,0.085998,1.138176,0.364026,-0.242591,-4.679306,-1.404493,-0.575284,-4.602825,1.497678,7.506096
0.740000,-2.031212,-2.547321,1.418273,0.949218,0.321991,0.083545,1.091168,0.350062,-0.247976,-4.720710,-1.387802,-0.502463,-3.680534,1.838785,7.049637
0.750000,-2.021666,-2.544083,1.419096,0.959893,0.325422,0.081041,1.043792,0.336281,-0.252657,-4.752971,-1.367752,-0.434455,-2.774449,2.169328,6.544041
0.760000,-2.012016,-2.540813,1.419893,0.970093,0.328717,0.078493,0.996142,0.322719,-0.256679,-4.775950,-1.344326,-0.371355,-1.893946,2.485730,5.983496
0.770000,-2.002266,-2.537510,1.420665,0.979815,0.331877,0.075909,0.948302,0.309405,-0.260103,-4.790564,-1.317932,-0.314494,-1.031879,2.791162,5.382471
0.780000,-1.992421,-2.534176,1.421411,0.989059,0.334906,0.073293,0.900359,0.296370,-0.262990,-4.796651,-1.288539,-0.263825,-0.188888,3.085615,4.745882
0.790000,-1.982486,-2.530812,1.422131,0.997823,0.337806,0.070651,0.852397,0.283644,-0.265401,-4.794407,-1.256256,-0.219678,0.634388,3.369081,4.078641
0.800000,-1.972466,-2.527420,1.422824,1.006107,0.340580,0.067987,0.804498,0.271254,-0.267406,-4.784031,-1.221194,-0.182338,1.437312,3.641550,3.385664
0.810000,-1.962366,-2.524001,1.423491,1.013913,0.343232,0.065304,0.756745,0.259230,-0.269070,-4.765465,-1.183362,-0.151904,2.212531,3.900474,2.668561
0.820000,-1.952190,-2.520556,1.424130,1.021243,0.345766,0.062606,0.709214,0.247596,-0.270468,-4.739550,-1.143107,-0.128871,2.966943,4.148696,1.935953
0.830000,-1.941942,-2.517086,1.424743,1.028098,0.348185,0.059895,0.661979,0.236376,-0.271672,-4.706195,-1.100422,-0.113219,3.700730,4.386517,1.193161
0.840000,-1.931629,-2.513592,1.425328,1.034483,0.350495,0.057173,0.615114,0.225595,-0.272757,-4.665604,-1.055410,-0.105024,4.414077,4.614241,0.445502
0.850000,-1.921254,-2.510076,1.425886,1.040402,0.352699,0.054440,0.568690,0.215275,-0.273798,-4.617981,-1.008170,-0.104307,5.107167,4.832170,-0.301705
0.860000,-1.910823,-2.506539,1.426417,1.045859,0.354802,0.051697,0.522779,0.205439,-0.274869,-4.563383,-0.958752,-0.111127,5.776540,5.039444,-1.040898
0.870000,-1.900339,-2.502981,1.426920,1.050859,0.356809,0.048942,0.477445,0.196107,-0.276045,-4.502352,-0.907359,-0.125189,6.426469,5.237670,-1.769276
0.880000,-1.889807,-2.499403,1.427396,1.055410,0.358726,0.046175,0.432753,0.187298,-0.277397,-4.434917,-0.854028,-0.146460,7.057583,5.427293,-2.481794
0.890000,-1.879232,-2.495806,1.427844,1.059517,0.360557,0.043394,0.388767,0.179033,-0.278997,-4.361261,-0.798841,-0.174755,7.670513,5.608758,-3.173410
0.900000,-1.868618,-2.492192,1.428264,1.063188,0.362308,0.040594,0.345548,0.171328,-0.280915,-4.281565,-0.741878,-0.209842,8.265888,5.782509,-3.839077
0.910000,-1.857970,-2.488560,1.428655,1.066431,0.363985,0.037774,0.303155,0.164200,-0.283219,-4.196018,-0.683236,-0.251699,8.844807,5.949537,-4.467041
0.920000,-1.847291,-2.484912,1.429019,1.069254,0.365594,0.034929,0.261647,0.157668,-0.285969,-4.104744,-0.622935,-0.299365,9.407373,6.109673,-5.059791
0.930000,-1.836586,-2.481249,1.429354,1.071667,0.367141,0.032053,0.221079,0.151747,-0.289225,-4.007924,-0.561065,-0.352764,9.954157,6.263297,-5.613105
0.940000,-1.825859,-2.477570,1.429660,1.073679,0.368631,0.029142,0.181506,0.146452,-0.293042,-3.905712,-0.497689,-0.411481,10.485731,6.410787,-6.122760
0.950000,-1.815114,-2.473876,1.429937,1.075300,0.370072,0.026190,0.142982,0.141798,-0.297471,-3.798258,-0.432868,-0.475059,11.002668,6.552521,-6.584534
0.960000,-1.804354,-2.470168,1.430184,1.076542,0.371470,0.023191,0.105556,0.137798,-0.302562,-3.685883,-0.366743,-0.543403,11.510019,6.691047,-6.983991
0.970000,-1.793584,-2.466447,1.430400,1.077415,0.372830,0.020137,0.069281,0.134468,-0.308351,-3.568304,-0.299162,-0.615011,12.003328,6.824307,-7.328374
0.980000,-1.782807,-2.462712,1.430586,1.077932,0.374161,0.017021,0.034206,0.131819,-0.314873,-3.445863,-0.230274,-0.689777,12.482617,6.952414,-7.614710
0.990000,-1.772027,-2.458964,1.430741,1.078104,0.375469,0.013837,0.000380,0.129866,-0.322155,-3.318699,-0.160130,-0.767102,12.947909,7.075480,-7.840028
1.000000,-1.761246,-2.455203,1.430863,1.077944,0.376761,0.010576,-0.032152,0.128621,-0.330221,-3.186951,-0.088781,-0.846364,13.399228,7.193617,-8.001356
1.010000,-1.750469,-2.451429,1.430952,1.077465,0.378044,0.007230,-0.063348,0.128093,-0.339093,-3.051046,-0.016404,-0.927424,13.843802,7.310225,-8.082640
1.020000,-1.739698,-2.447642,1.431007,1.076681,0.379325,0.003791,-0.093159,0.128297,-0.348772,-2.910446,0.057260,-1.008373,14.273566,7.421726,-8.095593
1.030000,-1.728936,-2.443842,1.431027,1.075607,0.380612,0.000252,-0.121543,0.129242,-0.359259,-2.765627,0.132013,-1.089104,14.687661,7.527831,-8.038845
1.040000,-1.718187,-2.440029,1.431012,1.074255,0.381913,-0.003397,-0.148458,0.130940,-0.370551,-2.616748,0.207798,-1.168913,15.085228,7.628249,-7.911027
1.050000,-1.707452,-2.436204,1.430959,1.072643,0.383234,-0.007162,-0.173865,0.133401,-0.382632,-2.463980,0.284558,-1.247083,15.465407,7.722692,-7.710769
1.060000,-1.696735,-2.432365,1.430868,1.070783,0.384583,-0.011052,-0.197728,0.136633,-0.395491,-2.307806,0.362091,-1.323497,15.835043,7.814405,-7.421176
1.070000,-1.686037,-2.428512,1.430737,1.068693,0.385969,-0.015074,-0.220009,0.140646,-0.409091,-2.147690,0.440665,-1.395955,16.184629,7.899129,-7.058305
1.080000,-1.675361,-2.424645,1.430566,1.066389,0.387399,-0.019236,-0.240671,0.145449,-0.423397,-1.984186,0.520048,-1.464420,16.512363,7.976141,-6.622687
1.090000,-1.664710,-2.420764,1.430352,1.063885,0.388881,-0.023544,-0.259682,0.151049,-0.438364,-1.817522,0.600159,-1.528168,16.816442,8.044717,-6.114854
1.100000,-1.654084,-2.416867,1.430095,1.061201,0.390422,-0.028005,-0.277012,0.157454,-0.453942,-1.647942,0.680911,-1.586479,17.095065,8.104133,-5.535338
1.110000,-1.643486,-2.412955,1.429792,1.058351,0.392032,-0.032625,-0.292634,0.164668,-0.470080,-1.475927,0.762102,-1.639324,17.351878,8.156372,-4.867346
1.120000,-1.632918,-2.409026,1.429442,1.055354,0.393719,-0.037408,-0.306522,0.172698,-0.486705,-1.301247,0.843882,-1.684371,17.578961,8.197674,-4.130854
1.130000,-1.622380,-2.405081,1.429043,1.052226,0.395489,-0.042360,-0.318652,0.181547,-0.503742,-1.124455,0.926015,-1.721721,17.773846,8.226985,-3.328515
1.140000,-1.611874,-2.401116,1.428594,1.048987,0.397352,-0.047484,-0.329005,0.191219,-0.521112,-0.945885,1.008378,-1.750730,17.934063,8.243251,-2.462983
1.150000,-1.601400,-2.397133,1.428093,1.045652,0.399316,-0.052783,-0.337565,0.201715,-0.538727,-0.765897,1.090833,-1.770779,18.057141,8.245417,-1.536910
1.160000,-1.590961,-2.393130,1.427538,1.042241,0.401389,-0.058259,-0.344320,0.213035,-0.556503,-0.584894,1.173207,-1.781978,18.141109,8.233168,-0.535197
1.170000,-1.580556,-2.389105,1.426927,1.038772,0.403580,-0.063913,-0.349261,0.225178,-0.574332,-0.403238,1.255410,-1.782099,18.182938,8.204620,0.519578
1.180000,-1.570185,-2.385058,1.426259,1.035262,0.405896,-0.069745,-0.352384,0.238142,-0.592109,-0.221384,1.337241,-1.771426,18.180099,8.158629,1.622588
1.190000,-1.559851,-2.380987,1.425531,1.031730,0.408345,-0.075755,-0.353689,0.251921,-0.609723,-0.039793,1.418520,-1.749502,18.130061,8.094049,2.769007
1.200000,-1.549551,-2.376890,1.424743,1.028194,0.410937,-0.081939,-0.353182,0.266510,-0.627060,0.141051,1.499056,-1.715917,18.030293,8.009737,3.954008
1.210000,-1.539287,-2.372767,1.423892,1.024673,0.413678,-0.088294,-0.350870,0.281900,-0.644008,0.320887,1.578725,-1.670932,17.871990,7.902524,5.188483
1.220000,-1.529057,-2.368616,1.422977,1.021183,0.416577,-0.094817,-0.346771,0.298081,-0.660437,0.498591,1.657124,-1.612759,17.659666,7.773536,6.449963
1.230000,-1.518863,-2.364435,1.421995,1.017743,0.419642,-0.101501,-0.340906,0.315038,-0.676221,0.673894,1.734120,-1.541865,17.391557,7.621877,7.731697
1.240000,-1.508702,-2.360223,1.420946,1.014371,0.422881,-0.108339,-0.333303,0.332758,-0.691232,0.846230,1.809483,-1.458080,17.065901,7.446649,9.026934
1.250000,-1.498575,-2.355977,1.419828,1.011083,0.426300,-0.115323,-0.323993,0.351221,-0.705339,1.015014,1.882972,-1.361304,16.680936,7.246955,10.328925
1.260000,-1.488480,-2.351696,1.418639,1.007896,0.429907,-0.122442,-0.313011,0.370412,-0.718419,1.180171,1.954534,-1.251906,16.221631,7.016928,11.641139
1.270000,-1.478417,-2.347378,1.417379,1.004828,0.433710,-0.129687,-0.300406,0.390304,-0.730334,1.339835,2.023447,-1.128964,15.701117,6.761249,12.945352
1.280000,-1.468383,-2.343021,1.416045,1.001893,0.437716,-0.137045,-0.286232,0.410872,-0.740955,1.493988,2.089673,-0.993053,15.119258,6.479631,14.233562
1.290000,-1.458378,-2.338623,1.414637,0.999108,0.441930,-0.144501,-0.270547,0.432088,-0.750152,1.642016,2.152952,-0.844373,14.475915,6.171783,15.497765
1.300000,-1.448401,-2.334182,1.413155,0.996487,0.446360,-0.152043,-0.253414,0.453920,-0.757800,1.783301,2.213020,-0.683204,13.770952,5.837418,16.729959
1.310000,-1.438448,-2.329695,1.411596,0.994044,0.451010,-0.159652,-0.234898,0.476340,-0.763776,1.917955,2.269898,-0.509945,12.985895,5.469000,17.923109
1.320000,-1.428519,-2.325161,1.409961,0.991793,0.455888,-0.167312,-0.215083,0.499306,-0.767960,2.043639,2.322636,-0.324946,12.141187,5.074374,19.068127
1.330000,-1.418612,-2.320577,1.408250,0.989747,0.460998,-0.175005,-0.194054,0.522779,-0.770238,2.160587,2.371300,-0.128770,11.238937,4.654140,20.156891
1.340000,-1.408723,-2.315940,1.406461,0.987916,0.466345,-0.182710,-0.171902,0.546717,-0.770500,2.268233,2.415636,0.077978,10.281252,4.208896,21.181280
1.350000,-1.398852,-2.311249,1.404596,0.986312,0.471934,-0.190408,-0.148722,0.571076,-0.768645,2.366034,2.455397,0.294614,9.270240,3.739242,22.133173
1.360000,-1.388996,-2.306501,1.402653,0.984944,0.477768,-0.198076,-0.124607,0.595812,-0.764573,2.454233,2.490653,0.520815,8.188661,3.237898,22.993279
1.370000,-1.379153,-2.301693,1.400634,0.983822,0.483851,-0.205692,-0.099674,0.620872,-0.758202,2.530515,2.520432,0.754687,7.060339,2.714306,23.766014
1.380000,-1.369319,-2.296823,1.398540,0.982953,0.490186,-0.213232,-0.074035,0.646203,-0.749455,2.595299,2.544870,0.995821,5.889752,2.170029,24.444626
1.390000,-1.359493,-2.291888,1.396370,0.982344,0.496776,-0.220673,-0.047808,0.671751,-0.738265,2.648184,2.563769,1.243243,4.681377,1.606629,25.022360
1.400000,-1.349671,-2.286887,1.394127,0.981999,0.503622,-0.227989,-0.021113,0.697460,-0.724573,2.688815,2.576944,1.495910,3.439690,1.025670,25.492463
1.410000,-1.339852,-2.281815,1.391811,0.981922,0.510725,-0.235156,0.005933,0.723273,-0.708322,2.717478,2.584476,1.753660,2.154119,0.422462,25.824201
1.420000,-1.330032,-2.276671,1.389424,0.982118,0.518087,-0.242147,0.033194,0.749129,-0.689490,2.732495,2.585627,2.013070,0.846033,-0.194413,26.037738
1.430000,-1.320209,-2.271452,1.386969,0.982586,0.525708,-0.248937,0.060539,0.774965,-0.668056,2.734344,2.580550,2.274008,-0.478248,-0.822626,26.129257
1.440000,-1.310379,-2.266156,1.384446,0.983328,0.533586,-0.255499,0.087836,0.800719,-0.644009,2.722897,2.569145,2.535236,-1.812404,-1.459848,26.094940
1.450000,-1.300541,-2.260780,1.381859,0.984343,0.541722,-0.261808,0.114952,0.826326,-0.617354,2.698084,2.551331,2.795475,-3.150117,-2.103750,25.930971
1.460000,-1.290692,-2.255321,1.379211,0.985626,0.550112,-0.267838,0.141756,0.851725,-0.588093,2.660135,2.527154,3.054772,-4.490913,-2.754511,25.599151
1.470000,-1.280828,-2.249777,1.376504,0.987176,0.558755,-0.273562,0.168110,0.876848,-0.556272,2.608560,2.496347,3.308549,-5.821910,-3.406988,25.134254
1.480000,-1.270947,-2.244145,1.373741,0.988987,0.567648,-0.278955,0.193883,0.901630,-0.521939,2.543753,2.459018,3.557014,-7.136071,-4.058544,24.536675
1.490000,-1.261047,-2.238423,1.370926,0.991051,0.576786,-0.283993,0.218942,0.926006,-0.485154,2.465918,2.415188,3.798842,-8.426361,-4.706545,23.806806
1.500000,-1.251125,-2.232608,1.368062,0.993363,0.586166,-0.288650,0.243159,0.949912,-0.445989,2.375329,2.364907,4.032711,-9.685744,-5.348353,22.945041
1.510000,-1.241179,-2.226699,1.365154,0.995911,0.595783,-0.292905,0.266405,0.973282,-0.404514,2.272089,2.308153,4.258853,-10.901099,-5.978863,21.912657
1.520000,-1.231206,-2.220692,1.362206,0.998687,0.605630,-0.296734,0.288561,0.996054,-0.360849,2.157183,2.245257,4.472289,-12.072220,-6.598212,20.753952
1.530000,-1.221205,-2.214586,1.359221,1.001679,0.615702,-0.300115,0.309510,1.018167,-0.315109,2.030813,2.176233,4.673528,-13.192817,-7.204067,19.474110
1.540000,-1.211172,-2.208377,1.356205,1.004873,0.625991,-0.303030,0.329141,1.039559,-0.267423,1.893516,2.101228,4.861385,-14.256599,-7.794094,18.078314
1.550000,-1.201107,-2.202065,1.353162,1.008257,0.636490,-0.305458,0.347346,1.060172,-0.217929,1.745891,2.020412,5.034725,-15.257275,-8.365959,16.571747
1.560000,-1.191006,-2.195647,1.350097,1.011815,0.647192,-0.307383,0.364018,1.079945,-0.166765,1.587852,1.933674,5.193834,-16.169626,-8.909651,14.925084
1.570000,-1.180870,-2.189121,1.347016,1.015532,0.658086,-0.308789,0.379074,1.098828,-0.114109,1.421898,1.841949,5.334447,-17.008608,-9.431456,13.182242
1.580000,-1.170695,-2.182484,1.343923,1.019391,0.669165,-0.309661,0.392429,1.116767,-0.060136,1.247938,1.745122,5.457190,-17.770248,-9.929981,11.352628
1.590000,-1.160482,-2.175737,1.340825,1.023375,0.680419,-0.309988,0.404009,1.133714,-0.005028,1.066764,1.643432,5.561242,-18.450573,-10.403832,9.445650
1.600000,-1.150227,-2.168875,1.337725,1.027465,0.691836,-0.309758,0.413743,1.149621,0.051024,0.879211,1.537132,5.645876,-19.045611,-10.851618,7.470718
1.610000,-1.139932,-2.161899,1.334631,1.031643,0.703407,-0.308965,0.421562,1.164437,0.107831,0.685005,1.426046,5.711224,-19.522473,-11.260699,5.417968
1.620000,-1.129594,-2.154807,1.331548,1.035890,0.715121,-0.307600,0.427429,1.178128,0.165179,0.487769,1.311508,5.754940,-19.909642,-11.642305,3.318439
1.630000,-1.119214,-2.147597,1.328481,1.040185,0.726966,-0.305660,0.431306,1.190655,0.222859,0.287112,1.193291,5.777476,-20.206688,-11.996420,1.183899
1.640000,-1.108791,-2.140267,1.325437,1.044509,0.738930,-0.303143,0.433163,1.201983,0.280657,0.083937,1.071671,5.778540,-20.413177,-12.323030,-0.973883
1.650000,-1.098324,-2.132818,1.322420,1.048842,0.751002,-0.300047,0.432979,1.212078,0.338358,-0.120848,0.946922,5.757960,-20.528678,-12.622119,-3.143140
1.660000,-1.087814,-2.125247,1.319438,1.053162,0.763168,-0.296376,0.430731,1.220907,0.395744,-0.327495,0.818903,5.715625,-20.523374,-12.883138,-5.310753
1.670000,-1.077261,-2.117554,1.316495,1.057450,0.775416,-0.292134,0.426431,1.228448,0.452598,-0.532333,0.688877,5.651724,-20.429816,-13.117894,-7.466470
1.680000,-1.066665,-2.109738,1.313597,1.061684,0.787732,-0.287327,0.420089,1.234677,0.508707,-0.735808,0.556629,5.566374,-20.251170,-13.327660,-9.598689
1.690000,-1.056027,-2.101799,1.310750,1.065845,0.800105,-0.281963,0.411722,1.239574,0.563855,-0.937083,0.422403,5.459867,-19.990601,-13.513710,-11.695807
1.700000,-1.045348,-2.093736,1.307959,1.069912,0.812519,-0.276054,0.401357,1.243120,0.617835,-1.135357,0.286430,5.332614,-19.651275,-13.677318,-13.746221
1.710000,-1.034629,-2.085549,1.305231,1.073866,0.824963,-0.269611,0.389020,1.245295,0.670432,-1.330613,0.148721,5.184353,-19.217259,-13.814566,-15.718510
1.720000,-1.023871,-2.077237,1.302569,1.077686,0.837421,-0.262650,0.374761,1.246090,0.721457,-1.520321,0.009971,5.017584,-18.713157,-13.932556,-17.623317
1.730000,-1.013076,-2.068800,1.299979,1.081355,0.849880,-0.255188,0.358631,1.245491,0.770721,-1.704661,-0.129872,4.832142,-18.144474,-14.033196,-19.451466
1.740000,-1.002245,-2.060239,1.297467,1.084853,0.862326,-0.247242,0.340687,1.243489,0.818040,-1.883014,-0.270642,4.628840,-17.516713,-14.118398,-21.193782
1.750000,-0.991380,-2.051554,1.295036,1.088163,0.874745,-0.238834,0.320993,1.240076,0.863241,-2.054817,-0.412195,4.408583,-16.835380,-14.190070,-22.841089
1.760000,-0.980482,-2.042744,1.292692,1.091267,0.887123,-0.229985,0.299613,1.235244,0.906145,-2.219712,-0.554310,4.171109,-16.102181,-14.252511,-24.352479
1.770000,-0.969555,-2.033811,1.290438,1.094150,0.899445,-0.220719,0.276624,1.228988,0.946615,-2.376890,-0.697105,3.920482,-15.326884,-14.304949,-25.754393
1.780000,-0.958600,-2.024756,1.288279,1.096795,0.911698,-0.211061,0.252102,1.221301,0.984510,-2.526129,-0.840381,3.656404,-14.515459,-14.349002,-27.041543
1.790000,-0.947620,-2.015578,1.286218,1.099187,0.923866,-0.201037,0.226129,1.212179,1.019702,-2.667098,-0.984062,3.380051,-13.673876,-14.386286,-28.208639
1.800000,-0.936617,-2.006279,1.284259,1.101313,0.935936,-0.190676,0.198788,1.201618,1.052074,-2.799526,-1.128090,3.092649,-12.808103,-14.418419,-29.250389
1.810000,-0.925595,-1.996859,1.282405,1.103158,0.947894,-0.180005,0.170171,1.189620,1.081507,-2.922813,-1.272059,2.794054,-11.933886,-14.456102,-30.125524
1.820000,-0.914555,-1.987321,1.280660,1.104712,0.959724,-0.169056,0.140361,1.176176,1.107928,-3.037722,-1.416796,2.488971,-11.046222,-14.490756,-30.869140
1.830000,-0.903501,-1.977665,1.279025,1.105962,0.971412,-0.157857,0.109447,1.161283,1.131264,-3.143708,-1.561866,2.177113,-10.149885,-14.522885,-31.480352
1.840000,-0.892437,-1.967894,1.277503,1.106897,0.982945,-0.146441,0.077517,1.144937,1.151452,-3.240707,-1.707247,1.859808,-9.249648,-14.552995,-31.958276
1.850000,-0.881365,-1.958007,1.276097,1.107509,0.994306,-0.134839,0.044663,1.127137,1.168446,-3.328704,-1.852921,1.538394,-8.350284,-14.581591,-32.302028
1.860000,-0.870288,-1.948008,1.274807,1.107788,1.005482,-0.123082,0.010980,1.107883,1.182197,-3.407063,-1.998392,1.212884,-7.473449,-14.621398,-32.477029
1.870000,-0.859210,-1.937898,1.273636,1.107726,1.016459,-0.111205,-0.023450,1.087168,1.192700,-3.477447,-2.144797,0.887789,-6.604965,-14.659204,-32.520216
1.880000,-0.848134,-1.927680,1.272583,1.107316,1.027221,-0.099239,-0.058540,1.064986,1.199953,-3.539199,-2.291566,0.562908,-5.747538,-14.694017,-32.434828
1.890000,-0.837065,-1.917355,1.271651,1.106553,1.037754,-0.087217,-0.094205,1.041335,1.203964,-3.592444,-2.438664,0.239510,-4.903873,-14.724845,-32.224109
1.900000,-0.826005,-1.906925,1.270839,1.105431,1.048043,-0.075171,-0.130361,1.016212,1.204752,-3.637332,-2.586046,-0.081167,-4.076676,-14.750697,-31.891299
1.910000,-0.814957,-1.896395,1.270148,1.103944,1.058073,-0.063132,-0.166918,0.989618,1.202342,-3.673396,-2.733228,-0.398979,-3.284932,-14.781439,-31.412887
1.920000,-0.803927,-1.885765,1.269576,1.102091,1.067830,-0.051134,-0.203803,0.961546,1.196791,-3.702370,-2.881162,-0.710245,-2.513075,-14.803892,-30.822144
1.930000,-0.792917,-1.875039,1.269125,1.099868,1.077299,-0.039207,-0.240940,0.931994,1.188158,-3.723727,-3.029270,-1.015069,-1.761814,-14.815734,-30.125586
1.940000,-0.781931,-1.864220,1.268792,1.097272,1.086465,-0.027381,-0.278253,0.900961,1.176514,-3.737677,-3.177434,-1.312426,-1.031863,-14.814646,-29.329730
1.950000,-0.770973,-1.853311,1.268577,1.094302,1.095313,-0.015686,-0.315669,0.868446,1.161938,-3.744437,-3.325512,-1.601354,-0.323933,-14.798305,-28.441093
1.960000,-0.760046,-1.842315,1.268477,1.090958,1.103829,-0.004151,-0.353114,0.834454,1.144511,-3.743838,-3.473119,-1.881618,0.351332,-14.770001,-27.449580
1.970000,-0.749155,-1.831235,1.268493,1.087240,1.111997,0.007195,-0.390524,0.798985,1.124340,-3.737041,-3.620593,-2.150828,1.004368,-14.721115,-26.380355
1.980000,-0.738303,-1.820076,1.268621,1.083148,1.119804,0.018327,-0.427833,0.762044,1.101531,-3.723823,-3.767463,-2.408994,1.635678,-14.648639,-25.241970
1.990000,-0.727493,-1.808840,1.268859,1.078684,1.127233,0.029217,-0.464980,0.723638,1.076199,-3.704399,-3.913477,-2.655466,2.245768,-14.549566,-24.042975
2.000000,-0.716730,-1.797533,1.269204,1.073849,1.134272,0.039843,-0.501901,0.683778,1.048463,-3.678977,-4.058356,-2.889680,2.835140,-14.420886,-22.791923
2.010000,-0.706017,-1.786156,1.269655,1.068647,1.140904,0.050179,-0.538539,0.642476,1.018446,-3.647698,-4.201846,-3.111323,3.402661,-14.258093,-21.493239
2.020000,-0.695358,-1.774716,1.270207,1.063079,1.147116,0.060205,-0.574837,0.599747,0.986280,-3.610916,-4.343466,-3.319614,3.950673,-14.059862,-20.160105
2.030000,-0.684757,-1.763215,1.270857,1.057151,1.152894,0.069898,-0.610739,0.555613,0.952099,-3.568747,-4.482915,-3.514440,4.479883,-13.823367,-18.801577
2.040000,-0.674217,-1.751659,1.271603,1.050866,1.158224,0.079240,-0.646194,0.510098,0.916037,-3.521378,-4.619797,-3.695591,4.990993,-13.545783,-17.426713
2.050000,-0.663741,-1.740053,1.272441,1.044229,1.163092,0.088213,-0.681150,0.463228,0.878233,-3.468986,-4.753685,-3.862950,5.484710,-13.224286,-16.044568
2.060000,-0.653333,-1.728399,1.273366,1.037245,1.167484,0.096799,-0.715560,0.415032,0.838828,-3.411919,-4.884429,-4.016102,5.966265,-12.848412,-14.673976
2.070000,-0.642997,-1.716704,1.274376,1.029920,1.171388,0.104985,-0.749373,0.365552,0.797956,-3.349918,-5.010832,-4.156025,6.431280,-12.423910,-13.313019
2.080000,-0.632736,-1.704973,1.275465,1.022260,1.174791,0.112754,-0.782543,0.314830,0.755753,-3.283348,-5.132739,-4.282420,6.879908,-11.948892,-11.969557
2.090000,-0.622553,-1.693210,1.276629,1.014271,1.177681,0.120096,-0.815025,0.262914,0.712352,-3.212373,-5.249635,-4.395501,7.312298,-11.421467,-10.651449
2.100000,-0.612451,-1.681421,1.277865,1.005962,1.180046,0.126998,-0.846776,0.209856,0.667886,-3.137156,-5.360987,-4.495560,7.728601,-10.839746,-9.366555
2.110000,-0.602435,-1.669611,1.279168,0.997338,1.181874,0.133450,-0.877757,0.155710,0.622493,-3.058099,-5.466686,-4.582070,8.135141,-10.190642,-8.145448
2.120000,-0.592506,-1.657786,1.280533,0.988409,1.183157,0.139444,-0.907925,0.100545,0.576285,-2.974784,-5.565111,-4.657609,8.525138,-9.484835,-6.970493
2.130000,-0.582668,-1.645950,1.281955,0.979183,1.183882,0.144973,-0.937240,0.044432,0.529379,-2.887653,-5.656192,-4.721650,8.897988,-8.721806,-5.846767
2.140000,-0.572923,-1.634110,1.283431,0.969667,1.184042,0.150030,-0.965666,-0.012552,0.481889,-2.796883,-5.739355,-4.774732,9.253085,-7.901037,-4.779349
2.150000,-0.563275,-1.622271,1.284954,0.959872,1.183629,0.154609,-0.993166,-0.070327,0.433919,-2.702653,-5.814019,-4.817442,9.589824,-7.022011,-3.773316
2.160000,-0.553726,-1.610439,1.286521,0.949807,1.182634,0.158707,-1.019710,-0.128808,0.385585,-2.605314,-5.880085,-4.849189,9.911751,-6.071924,-2.864823
2.170000,-0.544280,-1.598620,1.288127,0.939482,1.181051,0.162320,-1.045262,-0.187896,0.336965,-2.504670,-5.935813,-4.873577,10.213600,-5.064048,-2.024066
2.180000,-0.534938,-1.586820,1.289766,0.928906,1.178874,0.165445,-1.069794,-0.247489,0.288141,-2.401113,-5.981177,-4.889901,10.494257,-3.999367,-1.252319
2.190000,-0.525703,-1.575045,1.291434,0.918089,1.176099,0.168082,-1.093276,-0.307483,0.239191,-2.294859,-6.015614,-4.898857,10.752607,-2.878867,-0.550854
2.200000,-0.516577,-1.563300,1.293126,0.907044,1.172723,0.170229,-1.115683,-0.367763,0.190186,-2.186139,-6.038571,-4.901156,10.987538,-1.703536,0.079054
2.210000,-0.507562,-1.551592,1.294837,0.895779,1.168744,0.171886,-1.136991,-0.428219,0.141202,-2.075213,-6.049977,-4.896216,11.198502,-0.462441,0.603213
2.220000,-0.498662,-1.539927,1.296562,0.884307,1.164159,0.173053,-1.157180,-0.488721,0.092278,-1.962280,-6.048181,-4.887856,11.383749,0.830056,1.057301
2.230000,-0.489877,-1.528311,1.298296,0.872639,1.158970,0.173731,-1.176231,-0.549139,0.043459,-1.847628,-6.033213,-4.875294,11.542094,2.171508,1.444077
2.240000,-0.481210,-1.516750,1.300035,0.860787,1.153177,0.173923,-1.194128,-0.609340,-0.005216,-1.731531,-6.004596,-4.859189,11.672355,3.559471,1.766299
2.250000,-0.472662,-1.505250,1.301773,0.848761,1.146784,0.173628,-1.210858,-0.669184,-0.053715,-1.614278,-5.961876,-4.840174,11.773348,4.991500,2.026726
2.260000,-0.464235,-1.493816,1.303506,0.836573,1.139795,0.172849,-1.226409,-0.728533,-0.102000,-1.496023,-5.905071,-4.817719,11.840266,6.476359,2.199509
2.270000,-0.455931,-1.482456,1.305229,0.824237,1.132216,0.171588,-1.240777,-0.787235,-0.150065,-1.377415,-5.832724,-4.795083,11.875993,7.999020,2.319516
2.280000,-0.447751,-1.471174,1.306936,0.811762,1.124053,0.169848,-1.253957,-0.845137,-0.197898,-1.258609,-5.744977,-4.771484,11.879788,9.555666,2.393008
2.290000,-0.439696,-1.459977,1.308624,0.799161,1.115316,0.167631,-1.265949,-0.902082,-0.245493,-1.139928,-5.641510,-4.747357,11.850913,11.142481,2.426245
2.300000,-0.431768,-1.448869,1.310287,0.786447,1.106015,0.164939,-1.276757,-0.957913,-0.292845,-1.021702,-5.522039,-4.723072,11.788627,12.755646,2.425490
2.310000,-0.423967,-1.437858,1.311921,0.773630,1.096162,0.161775,-1.286383,-1.012474,-0.339947,-0.903972,-5.386759,-4.698202,11.684683,14.402386,2.378369
2.320000,-0.416295,-1.426948,1.313521,0.760723,1.085771,0.158141,-1.294840,-1.065593,-0.386811,-0.787787,-5.234427,-4.674737,11.546769,16.066490,2.312059
2.330000,-0.408753,-1.416144,1.315082,0.747737,1.074856,0.154039,-1.302143,-1.117106,-0.433444,-0.673149,-5.065389,-4.651996,11.375062,17.742786,2.235102
2.340000,-0.401341,-1.405453,1.316600,0.734684,1.063434,0.149473,-1.308310,-1.166845,-0.479853,-0.560398,-4.879548,-4.630042,11.169743,19.426105,2.156041
2.350000,-0.394060,-1.394877,1.318070,0.721575,1.051525,0.144443,-1.313359,-1.214641,-0.526047,-0.449866,-4.676860,-4.608854,10.930991,21.111278,2.083419
2.360000,-0.386910,-1.384424,1.319488,0.708420,1.039149,0.138952,-1.317311,-1.260331,-0.572031,-0.341486,-4.457732,-4.588198,10.648821,22.803213,2.022598
2.370000,-0.379891,-1.374096,1.320848,0.695232,1.026326,0.133003,-1.320198,-1.303740,-0.617813,-0.236542,-4.221278,-4.568180,10.334821,24.485428,1.985691
2.380000,-0.373005,-1.363899,1.322146,0.682020,1.013082,0.126597,-1.322053,-1.344700,-0.663396,-0.134891,-3.968078,-4.548374,9.990416,26.151517,1.981629
2.390000,-0.366251,-1.353836,1.323378,0.668794,0.999441,0.119736,-1.322908,-1.383046,-0.708780,-0.036830,-3.698323,-4.528408,9.617029,27.795077,2.019346
2.400000,-0.359629,-1.343911,1.324539,0.655565,0.985430,0.112422,-1.322802,-1.418612,-0.753962,0.057358,-3.412272,-4.507819,9.216083,29.409704,2.107772
2.410000,-0.353140,-1.334128,1.325625,0.642341,0.971079,0.104657,-1.321771,-1.451245,-0.798938,0.147777,-3.110906,-4.486625,8.779588,31.005635,2.270276
2.420000,-0.346782,-1.324490,1.326631,0.629132,0.956416,0.096444,-1.319862,-1.480778,-0.843688,0.233291,-2.793049,-4.462835,8.319536,32.557786,2.499586
2.430000,-0.340557,-1.315001,1.327553,0.615947,0.941474,0.087784,-1.317121,-1.507055,-0.888186,0.314098,-2.459924,-4.436387,7.838503,34.057715,2.802868
2.440000,-0.334463,-1.305662,1.328385,0.602792,0.926286,0.078681,-1.313596,-1.529927,-0.932404,0.390000,-2.112097,-4.406507,7.339066,35.496981,3.187285
2.450000,-0.328501,-1.296476,1.329125,0.589677,0.910887,0.069137,-1.309338,-1.549250,-0.976302,0.460826,-1.750215,-4.372347,6.823802,36.867141,3.660001
2.460000,-0.322670,-1.287445,1.329767,0.576608,0.895314,0.059157,-1.304393,-1.564886,-1.019850,0.526814,-1.374886,-4.334483,6.285622,38.156557,4.265909
2.470000,-0.316969,-1.278570,1.330306,0.563591,0.879602,0.048742,-1.298820,-1.576707,-1.062970,0.586939,-0.987226,-4.288387,5.737952,39.360375,4.969826
2.480000,-0.311398,-1.269853,1.330740,0.550633,0.863793,0.037899,-1.292672,-1.584592,-1.105592,0.641554,-0.587990,-4.234751,5.184552,40.470544,5.774297
2.490000,-0.305956,-1.261294,1.331063,0.537739,0.847924,0.026632,-1.286007,-1.588431,-1.147636,0.690623,-0.178154,-4.172557,4.629181,41.479014,6.681865
2.500000,-0.300643,-1.252894,1.331271,0.524915,0.832038,0.014948,-1.278878,-1.588123,-1.189012,0.734144,0.241224,-4.100761,4.075600,42.377734,7.695077
2.510000,-0.295457,-1.244653,1.331361,0.512163,0.816176,0.002855,-1.271341,-1.583579,-1.229638,0.772265,0.668992,-4.020291,3.524756,43.159047,8.866892
2.520000,-0.290399,-1.236571,1.331327,0.499489,0.800381,-0.009641,-1.263451,-1.574719,-1.269377,0.804797,1.103968,-3.925326,2.983566,43.814461,10.143267
2.530000,-0.285467,-1.228645,1.331166,0.486895,0.784696,-0.022529,-1.255263,-1.561480,-1.308100,0.831982,1.544835,-3.817089,2.456134,44.335877,11.520571
2.540000,-0.280661,-1.220876,1.330875,0.474385,0.769166,-0.035799,-1.246829,-1.543808,-1.345671,0.853979,1.990212,-3.694590,1.946565,44.715197,12.995176
2.550000,-0.275979,-1.213261,1.330449,0.461959,0.753835,-0.049438,-1.238200,-1.521665,-1.381941,0.870987,2.438638,-3.556873,1.458964,44.944322,14.563454
2.560000,-0.271421,-1.205799,1.329885,0.449621,0.738747,-0.063432,-1.229427,-1.495022,-1.416779,0.883076,2.889270,-3.405247,1.001713,44.997486,16.278015
2.570000,-0.266986,-1.198486,1.329179,0.437371,0.723949,-0.077767,-1.220553,-1.463881,-1.449988,0.890929,3.338829,-3.233559,0.574114,44.886421,18.072105
2.580000,-0.262674,-1.191319,1.328329,0.425210,0.709485,-0.092426,-1.211622,-1.428252,-1.481389,0.894669,3.786431,-3.043575,0.179748,44.605192,19.935208
2.590000,-0.258482,-1.184295,1.327330,0.413139,0.695399,-0.107388,-1.202673,-1.388165,-1.510796,0.894646,4.230346,-2.834660,-0.177804,44.147864,21.856808
2.600000,-0.254411,-1.177409,1.326180,0.401157,0.681736,-0.122634,-1.193740,-1.343664,-1.538017,0.891247,4.668782,-2.606279,-0.494962,43.508503,23.826390
2.610000,-0.250459,-1.170658,1.324876,0.389264,0.668539,-0.138140,-1.184862,-1.294790,-1.562876,0.884480,5.102039,-2.359958,-0.757686,42.626866,25.882721
2.620000,-0.246625,-1.164037,1.323416,0.377459,0.655854,-0.153883,-1.176059,-1.241655,-1.585147,0.875781,5.523119,-2.090755,-0.974135,41.557974,27.959969
2.630000,-0.242909,-1.157539,1.321798,0.365742,0.643720,-0.169834,-1.167353,-1.184366,-1.604622,0.865159,5.932577,-1.800744,-1.142010,40.302542,30.041583
2.640000,-0.239310,-1.151160,1.320019,0.354112,0.632180,-0.185965,-1.158760,-1.123049,-1.621093,0.853110,6.328551,-1.489964,-1.259009,38.861284,32.111015
2.650000,-0.235827,-1.144894,1.318078,0.342567,0.621272,-0.202245,-1.150294,-1.057846,-1.634353,0.840156,6.709186,-1.158620,-1.322833,37.234915,34.151714
2.660000,-0.232458,-1.138733,1.315974,0.331106,0.611035,-0.218641,-1.141967,-0.988898,-1.644205,0.826036,7.074882,-0.807750,-1.310900,35.367385,36.164034
2.670000,-0.229204,-1.132671,1.313705,0.319727,0.601505,-0.235117,-1.133772,-0.916414,-1.650442,0.813217,7.418478,-0.436306,-1.243676,33.323124,38.112451
2.680000,-0.226063,-1.126700,1.311271,0.308430,0.592717,-0.251637,-1.125700,-0.840599,-1.652868,0.801346,7.740781,-0.045776,-1.121344,31.109796,39.978347
2.690000,-0.223035,-1.120814,1.308672,0.297213,0.584704,-0.268161,-1.117740,-0.761675,-1.651297,0.790973,8.040136,0.362923,-0.944087,28.735066,41.743101
2.700000,-0.220119,-1.115003,1.305908,0.286075,0.577493,-0.284649,-1.109873,-0.679878,-1.645552,0.782647,8.314970,0.788687,-0.712090,26.206601,43.388093
2.710000,-0.217314,-1.109261,1.302980,0.275015,0.571114,-0.301058,-1.102088,-0.595434,-1.635460,0.776006,8.566428,1.231222,-0.402623,23.465216,44.869504
2.720000,-0.214618,-1.103578,1.299888,0.264033,0.565592,-0.317343,-1.094342,-0.508643,-1.620881,0.773743,8.786824,1.686689,-0.041588,20.593612,46.197000
2.730000,-0.212033,-1.097946,1.296633,0.253129,0.560948,-0.333460,-1.086600,-0.419795,-1.601684,0.775336,8.977919,2.154597,0.368026,17.607638,47.355047
2.740000,-0.209556,-1.092356,1.293219,0.242301,0.557202,-0.349361,-1.078821,-0.329186,-1.577754,0.781256,9.138648,2.633173,0.823229,14.523145,48.328111
2.750000,-0.207186,-1.086799,1.289647,0.231552,0.554369,-0.364999,-1.070959,-0.237126,-1.548992,0.791943,9.268106,3.120491,1.321032,11.355983,49.100658
2.760000,-0.204924,-1.081266,1.285920,0.220883,0.552462,-0.380325,-1.062973,-0.143912,-1.515292,0.807016,9.367281,3.617181,1.878467,8.078156,49.588587
2.770000,-0.202768,-1.075747,1.282042,0.210294,0.551493,-0.395289,-1.054800,-0.049891,-1.476635,0.828732,9.431475,4.114579,2.470072,4.754732,49.853328
2.780000,-0.200718,-1.070233,1.278016,0.199788,0.551466,-0.409842,-1.046379,0.044606,-1.432995,0.856513,9.462295,4.613480,3.090406,1.406929,49.887742
2.790000,-0.198772,-1.064714,1.273846,0.189367,0.552385,-0.423933,-1.037648,0.139244,-1.384369,0.890618,9.459603,5.111543,3.734029,-1.944032,49.684690
2.800000,-0.196930,-1.059182,1.269539,0.179036,0.554250,-0.437512,-1.028545,0.233687,-1.330775,0.931253,9.423474,5.606358,4.395501,-5.276931,49.237035
2.810000,-0.195191,-1.053626,1.265098,0.168798,0.557057,-0.450533,-1.019005,0.327602,-1.272222,0.978198,9.354125,6.099032,5.078763,-8.568781,48.447021
2.820000,-0.193554,-1.048038,1.260530,0.158658,0.560800,-0.462942,-1.008958,0.420661,-1.208825,1.032429,9.252221,6.578518,5.767843,-11.800345,47.409223
2.830000,-0.192018,-1.042407,1.255841,0.148621,0.565467,-0.474693,-0.998333,0.512540,-1.140690,1.093552,9.118389,7.046404,6.456150,-14.950622,46.127600
2.840000,-0.190581,-1.036725,1.251039,0.138693,0.571045,-0.485740,-0.987064,0.602925,-1.067944,1.161527,8.953549,7.500270,7.137096,-17.998607,44.606109
2.850000,-0.189244,-1.030983,1.246129,0.128882,0.577519,-0.496037,-0.975080,0.691511,-0.990739,1.236247,8.758828,7.937739,7.804089,-20.923297,42.848708
2.860000,-0.188003,-1.025172,1.241120,0.119194,0.584869,-0.505542,-0.962315,0.777984,-0.909217,1.317742,8.533493,8.359692,8.445452,-23.651375,40.778021
2.870000,-0.186859,-1.019283,1.236021,0.109638,0.593072,-0.514209,-0.948705,0.862093,-0.823618,1.405295,8.283995,8.756204,9.060306,-26.220558,38.489300
2.880000,-0.185810,-1.013308,1.230839,0.100223,0.602102,-0.522001,-0.934189,0.943581,-0.734172,1.498840,8.009660,9.128797,9.642686,-28.616247,35.996461
2.890000,-0.184854,-1.007238,1.225584,0.090958,0.611934,-0.528881,-0.918709,1.022209,-0.641128,1.598021,7.712297,9.475499,10.186623,-30.823846,33.313423
2.900000,-0.183990,-1.001067,1.220265,0.081852,0.622536,-0.534813,-0.902211,1.097757,-0.544755,1.702424,7.393859,9.794478,10.686152,-32.828757,30.454102
2.910000,-0.183217,-0.994785,1.214891,0.072917,0.633879,-0.539766,-0.884637,1.169987,-0.445317,1.812274,7.053083,10.085903,11.117677,-34.531448,27.385372
2.920000,-0.182531,-0.988387,1.209473,0.064163,0.645926,-0.543711,-0.865952,1.238765,-0.343141,1.925384,6.700177,10.343810,11.495018,-36.012656,24.173955
2.930000,-0.181933,-0.981864,1.204020,0.055602,0.658642,-0.546621,-0.846118,1.303944,-0.238550,2.041981,6.333583,10.568972,11.814369,-37.268185,20.839528
2.940000,-0.181419,-0.975212,1.198544,0.047245,0.671992,-0.548475,-0.825103,1.365399,-0.131875,2.161465,5.955579,10.760256,12.071919,-38.293835,17.401770
2.950000,-0.180987,-0.968423,1.193054,0.039104,0.685938,-0.549253,-0.802881,1.423026,-0.023461,2.283201,5.568486,10.916728,12.263862,-39.085411,13.880359
2.960000,-0.180636,-0.961491,1.187562,0.031191,0.700441,-0.548939,-0.779423,1.476708,0.086342,2.407482,5.171146,11.037768,12.361861,-39.549817,10.291996
2.970000,-0.180363,-0.954412,1.182079,0.023519,0.715460,-0.547522,-0.754729,1.526437,0.197174,2.531299,4.774293,11.122555,12.389639,-39.782638,6.659701
2.980000,-0.180165,-0.947180,1.176616,0.016100,0.730956,-0.544994,-0.728797,1.572190,0.308672,2.655039,4.376242,11.170882,12.346393,-39.790564,3.003514
2.990000,-0.180040,-0.939791,1.171183,0.008947,0.746890,-0.541348,-0.701631,1.613965,0.420470,2.777987,3.979209,11.182612,12.231317,-39.580282,-0.656521
3.000000,-0.179985,-0.932241,1.165793,0.002072,0.763222,-0.536584,-0.673243,1.651785,0.532202,2.899423,3.585342,11.157806,12.043607,-39.158481,-4.300363
3.010000,-0.179997,-0.924526,1.160455,-0.004514,0.779914,-0.530705,-0.643640,1.685661,0.643490,3.019590,3.194075,11.095359,11.757814,-38.464996,-7.873459
3.020000,-0.180074,-0.916642,1.155182,-0.010797,0.796924,-0.523717,-0.612861,1.715692,0.753991,3.135442,2.813691,10.998970,11.400795,-37.581553,-11.394503
3.030000,-0.180212,-0.908586,1.149984,-0.016767,0.814215,-0.515629,-0.580944,1.741967,0.863353,3.247376,2.443028,10.867695,10.974765,-36.523028,-14.847679
3.040000,-0.180408,-0.900357,1.144873,-0.022413,0.831751,-0.506455,-0.547929,1.764591,0.971231,3.354714,2.083764,10.702295,10.481935,-35.304295,-18.217169
3.050000,-0.180659,-0.891951,1.139859,-0.027722,0.849495,-0.496210,-0.513867,1.783686,1.077289,3.456800,1.737427,10.503684,9.924520,-33.940227,-21.487158
3.060000,-0.180962,-0.883366,1.134952,-0.032687,0.867414,-0.484915,-0.478805,1.799374,1.181175,3.553751,1.404224,10.270790,9.285692,-32.416132,-24.587612
3.070000,-0.181312,-0.874602,1.130164,-0.037296,0.885472,-0.472594,-0.442814,1.811823,1.282603,3.643171,1.088157,10.009926,8.589037,-30.780071,-27.563571
3.080000,-0.181706,-0.865656,1.125504,-0.041540,0.903640,-0.459273,-0.405965,1.821194,1.381276,3.725354,0.788934,9.719964,7.839099,-29.050540,-30.405856
3.090000,-0.182141,-0.856529,1.120982,-0.045412,0.921886,-0.444979,-0.368333,1.827660,1.476910,3.799790,0.507396,9.402285,7.040423,-27.246033,-33.105290
3.100000,-0.182613,-0.847219,1.116607,-0.048905,0.940184,-0.429745,-0.329997,1.831403,1.569234,3.866015,0.244202,9.058365,6.197553,-25.385044,-35.652696
3.110000,-0.183118,-0.837725,1.112390,-0.052010,0.958506,-0.413606,-0.291037,1.832611,1.657972,3.924019,0.000204,8.687635,5.304694,-23.495728,-37.984993
3.120000,-0.183652,-0.828048,1.108338,-0.054724,0.976828,-0.396598,-0.251547,1.831470,1.742912,3.972458,-0.225213,8.296805,4.377998,-21.585736,-40.153506
3.130000,-0.184211,-0.818189,1.104461,-0.057040,0.995128,-0.378761,-0.211619,1.828171,1.823838,4.011485,-0.431499,7.885119,3.423275,-19.672382,-42.155658
3.140000,-0.184792,-0.808146,1.100766,-0.058955,1.013385,-0.360135,-0.171349,1.822904,1.900550,4.040849,-0.618707,7.454254,2.446336,-17.772976,-43.988871
3.150000,-0.185389,-0.797921,1.097261,-0.060466,1.031580,-0.340764,-0.130835,1.815860,1.972865,4.060357,-0.787063,7.005913,1.452991,-15.904832,-45.650568
3.160000,-0.186000,-0.787515,1.093953,-0.061571,1.049696,-0.320693,-0.090175,1.807241,2.040599,4.069919,-0.935397,6.540267,0.447919,-14.124875,-47.098861
3.170000,-0.186619,-0.776928,1.090849,-0.062269,1.067720,-0.299968,-0.049470,1.797210,2.103625,4.069351,-1.067995,6.062754,-0.561798,-12.405952,-48.375296
3.180000,-0.187244,-0.766161,1.087955,-0.062561,1.085636,-0.278636,-0.008822,1.785937,2.161815,4.058687,-1.183761,5.573327,-1.570210,-10.760525,-49.482109
3.190000,-0.187869,-0.755215,1.085278,-0.062446,1.103435,-0.256748,0.031670,1.773588,2.215058,4.037971,-1.283492,5.073670,-2.571367,-9.201056,-50.421537
3.200000,-0.188491,-0.744092,1.082822,-0.061928,1.121105,-0.234352,0.071904,1.760318,2.263260,4.007304,-1.368110,4.565446,-3.559319,-7.740005,-51.195815
3.210000,-0.189106,-0.732794,1.080593,-0.061009,1.138638,-0.211499,0.111780,1.746297,2.306335,3.966587,-1.436479,4.049510,-4.521517,-6.444962,-51.787326
3.220000,-0.189710,-0.721320,1.078593,-0.059694,1.156028,-0.188242,0.151204,1.731630,2.344233,3.916660,-1.494937,3.529341,-5.459420,-5.266511,-52.220591
3.230000,-0.190299,-0.709673,1.076829,-0.057987,1.173269,-0.164632,0.190083,1.716435,2.376910,3.857497,-1.542217,3.005611,-6.367884,-4.210362,-52.500276
3.240000,-0.190869,-0.697855,1.075302,-0.055895,1.190355,-0.140721,0.228325,1.700818,2.404338,3.789417,-1.579571,2.479832,-7.241770,-3.282226,-52.631050
3.250000,-0.191415,-0.685867,1.074015,-0.053423,1.207284,-0.116563,0.265843,1.684872,2.426504,3.712794,-1.608308,1.953470,-8.075935,-2.487816,-52.617578
3.260000,-0.191936,-0.673710,1.072971,-0.050580,1.224051,-0.092209,0.302548,1.668701,2.443409,3.627571,-1.627561,1.427792,-8.853189,-1.889199,-52.460652
3.270000,-0.192426,-0.661386,1.072172,-0.047375,1.240657,-0.067712,0.338369,1.652339,2.455068,3.535354,-1.644036,0.904532,-9.581914,-1.428828,-52.169290
3.280000,-0.192882,-0.648897,1.071617,-0.043816,1.257098,-0.043125,0.373232,1.635833,2.461511,3.436107,-1.656594,0.384837,-10.258445,-1.105513,-51.748633
3.290000,-0.193301,-0.636245,1.071309,-0.039914,1.273373,-0.018499,0.407069,1.619215,2.462781,3.330371,-1.666600,-0.130026,-10.879116,-0.918066,-51.203824
3.300000,-0.193679,-0.623431,1.071247,-0.035678,1.289482,0.006114,0.439820,1.602505,2.458931,3.218723,-1.675405,-0.638843,-11.440259,-0.865295,-50.540003
3.310000,-0.194014,-0.610456,1.071431,-0.031121,1.305422,0.030663,0.471420,1.585727,2.450030,3.101168,-1.682508,-1.140279,-11.922850,-0.992555,-49.766542
3.320000,-0.194301,-0.597323,1.071860,-0.026254,1.321195,0.055098,0.501828,1.568848,2.436153,2.979797,-1.693600,-1.633620,-12.340463,-1.246413,-48.883836
3.330000,-0.194538,-0.584033,1.072533,-0.021088,1.336799,0.079369,0.531003,1.551844,2.417388,2.854582,-1.707835,-2.117607,-12.691312,-1.619980,-47.896508
3.340000,-0.194721,-0.570587,1.073447,-0.015638,1.352232,0.103429,0.558909,1.534677,2.393835,2.726199,-1.726376,-2.591217,-12.973611,-2.106367,-46.809182
3.350000,-0.194849,-0.556989,1.074600,-0.009915,1.367492,0.127230,0.585519,1.517299,2.365602,2.595344,-1.750315,-3.053473,-13.185576,-2.698686,-45.626482
3.360000,-0.194919,-0.543238,1.075990,-0.003932,1.382576,0.150726,0.610803,1.499663,2.332809,2.462059,-1.779485,-3.503267,-13.308521,-3.420221,-44.357516
3.370000,-0.194927,-0.529338,1.077614,0.002297,1.397483,0.173872,0.634757,1.481684,2.295580,2.328658,-1.817668,-3.940134,-13.359630,-4.230215,-43.001875
3.380000,-0.194872,-0.515289,1.079467,0.008759,1.412209,0.196623,0.657375,1.463281,2.254053,2.195105,-1.864349,-4.363029,-13.339187,-5.118083,-41.563633
3.390000,-0.194751,-0.501094,1.081545,0.015440,1.426747,0.218939,0.678661,1.444366,2.208369,2.062112,-1.920254,-4.771145,-13.247475,-6.073243,-40.046865
3.400000,-0.194563,-0.486755,1.083844,0.022328,1.441094,0.240777,0.698622,1.424843,2.158682,1.930392,-1.986003,-5.163718,-13.084778,-7.085111,-38.455645
3.410000,-0.194304,-0.472273,1.086359,0.029409,1.455242,0.262100,0.717268,1.404616,2.105149,1.799983,-2.061670,-5.540024,-12.834475,-8.154209,-36.794029
3.420000,-0.193974,-0.457651,1.089084,0.036669,1.469183,0.282868,0.734631,1.383573,2.047938,1.673176,-2.148705,-5.899379,-12.515826,-9.257488,-35.066113
3.430000,-0.193570,-0.442890,1.092014,0.044097,1.482910,0.303047,0.750743,1.361605,1.987220,1.549886,-2.246894,-6.241139,-12.131183,-10.383003,-33.275976
3.440000,-0.193091,-0.427993,1.095143,0.051680,1.496412,0.322601,0.765643,1.338598,1.923175,1.430764,-2.356399,-6.564704,-11.682901,-11.518810,-31.427693
3.450000,-0.192536,-0.412962,1.098464,0.059406,1.509678,0.341500,0.779374,1.314439,1.855988,1.316433,-2.477264,-6.869513,-11.173333,-12.652967,-29.525342
3.460000,-0.191903,-0.397800,1.101970,0.067264,1.522697,0.359711,0.791983,1.289012,1.785847,1.206886,-2.609718,-7.155249,-10.589482,-13.765840,-27.567845
3.470000,-0.191190,-0.382509,1.105656,0.075242,1.535454,0.377208,0.803533,1.262208,1.712950,1.104140,-2.752843,-7.420949,-9.950934,-14.854116,-25.565066
3.480000,-0.190398,-0.367092,1.109512,0.083331,1.547936,0.393962,0.814088,1.233919,1.637496,1.008035,-2.906681,-7.666415,-9.261922,-15.906793,-23.521713
3.490000,-0.189524,-0.351552,1.113532,0.091521,1.560127,0.409950,0.823717,1.204040,1.559690,0.919056,-3.070823,-7.891264,-8.526680,-16.912868,-21.442494
3.500000,-0.188567,-0.335891,1.117708,0.099803,1.572011,0.425149,0.832494,1.172470,1.479740,0.837642,-3.244747,-8.095161,-7.749441,-17.861340,-19.332119
3.510000,-0.187527,-0.320112,1.122033,0.108168,1.583571,0.439538,0.840491,1.139104,1.397854,0.763712,-3.428762,-8.278118,-6.922299,-18.717433,-17.187726
3.520000,-0.186403,-0.304220,1.126496,0.116610,1.594787,0.453100,0.847796,1.103867,1.314250,0.698761,-3.619901,-8.439184,-6.063115,-19.496830,-15.022520
3.530000,-0.185195,-0.288218,1.131092,0.125122,1.605642,0.465818,0.854496,1.066682,1.229143,0.642537,-3.818416,-8.578517,-5.177610,-20.191438,-12.842135
3.540000,-0.183901,-0.272109,1.135810,0.133699,1.616114,0.477679,0.860677,1.027477,1.142752,0.595277,-4.023420,-8.695995,-4.271504,-20.793167,-10.652208
3.550000,-0.182521,-0.255897,1.140642,0.142334,1.626184,0.488670,0.866432,0.986195,1.055296,0.557157,-4.233943,-8.791548,-3.350517,-21.293925,-8.458374
3.560000,-0.181054,-0.239587,1.145580,0.151026,1.635831,0.498782,0.871846,0.942769,0.966992,0.527866,-4.450288,-8.865403,-2.409464,-21.651446,-6.260320
3.570000,-0.179500,-0.223182,1.150615,0.159771,1.645033,0.508008,0.877020,0.897179,0.878061,0.508488,-4.668121,-8.917047,-1.466308,-21.895999,-4.070358
3.580000,-0.177858,-0.206687,1.155738,0.168566,1.653768,0.516342,0.882048,0.849400,0.788724,0.498523,-4.887819,-8.946859,-0.528103,-22.023677,-1.894850
3.590000,-0.176128,-0.190108,1.160939,0.177411,1.662014,0.523781,0.887022,0.799420,0.699196,0.497886,-5.108192,-8.955014,0.398094,-22.030575,0.259839
3.600000,-0.174310,-0.173449,1.166210,0.186307,1.669749,0.530326,0.892036,0.747238,0.609695,0.506421,-5.328015,-8.941753,1.305227,-21.912785,2.387347
3.610000,-0.172402,-0.156715,1.171543,0.195252,1.676951,0.535976,0.897186,0.692847,0.520432,0.524452,-5.547748,-8.907341,2.172373,-21.622729,4.480361
3.620000,-0.170405,-0.139912,1.176927,0.204251,1.683599,0.540736,0.902553,0.636295,0.431617,0.550383,-5.761995,-8.852236,3.008042,-21.205520,6.533583
3.630000,-0.168317,-0.123045,1.182354,0.213305,1.689670,0.544611,0.908221,0.577623,0.343455,0.584490,-5.971440,-8.776823,3.806875,-20.662601,8.540764
3.640000,-0.166138,-0.106120,1.187816,0.222417,1.695145,0.547608,0.914269,0.516887,0.256147,0.626380,-6.174833,-8.681595,4.563516,-19.995412,10.495658
3.650000,-0.163868,-0.089144,1.193304,0.231591,1.700001,0.549737,0.920773,0.454151,0.169887,0.675602,-6.370939,-8.567105,5.272606,-19.205395,12.392016
3.660000,-0.161506,-0.072122,1.198808,0.240834,1.704222,0.551010,0.927802,0.389484,0.084870,0.731462,-6.559694,-8.433710,5.933667,-18.264738,14.217004
3.670000,-0.159051,-0.055062,1.204321,0.250150,1.707785,0.551439,0.935423,0.322991,0.001273,0.793861,-6.737151,-8.282705,6.535864,-17.207718,15.971768
3.680000,-0.156503,-0.037969,1.209834,0.259545,1.710676,0.551040,0.943698,0.254778,-0.080727,0.861963,-6.903477,-8.114526,7.073242,-16.039358,17.650868
3.690000,-0.153860,-0.020851,1.215339,0.269026,1.712876,0.549830,0.952679,0.184962,-0.160963,0.935090,-7.057584,-7.929958,7.539845,-14.764681,19.248861
3.700000,-0.151122,-0.003714,1.220828,0.278601,1.714370,0.547828,0.962414,0.113670,-0.239275,1.012505,-7.198433,-7.729838,7.929719,-13.388712,20.760307
3.710000,-0.148288,0.013434,1.226293,0.288276,1.715145,0.545052,0.972960,0.041029,-0.315503,1.095160,-7.326137,-7.514352,8.192684,-11.888692,22.161921
3.720000,-0.145356,0.030587,1.231727,0.298062,1.715187,0.541525,0.984325,-0.032801,-0.389516,1.178055,-7.437155,-7.286120,8.372424,-10.300827,23.468292
3.730000,-0.142326,0.047736,1.237121,0.307966,1.714485,0.537269,0.996526,-0.107660,-0.461184,1.262329,-7.531889,-7.045314,8.468399,-8.633542,24.676162
3.740000,-0.139197,0.064874,1.242470,0.317995,1.713031,0.532309,1.009573,-0.183382,-0.530384,1.347142,-7.609589,-6.792936,8.480068,-6.895263,25.782275
3.750000,-0.135966,0.081994,1.247765,0.328160,1.710815,0.526670,1.023468,-0.259793,-0.597007,1.431648,-7.669586,-6.530019,8.406892,-5.094414,26.783377
3.760000,-0.132633,0.099088,1.253001,0.338467,1.707833,0.520378,1.038220,-0.336720,-0.660943,1.516623,-7.711935,-6.256684,8.207230,-3.223302,27.652334
3.770000,-0.129196,0.116148,1.258170,0.348926,1.704080,0.513460,1.053792,-0.413969,-0.722114,1.597358,-7.734626,-5.976268,7.926675,-1.308444,28.412690
3.780000,-0.125654,0.133167,1.263268,0.359545,1.699554,0.505945,1.070156,-0.491348,-0.780445,1.674901,-7.737992,-5.688793,7.569719,0.639761,29.064113
3.790000,-0.122005,0.150136,1.268287,0.370332,1.694253,0.497861,1.087277,-0.568663,-0.835870,1.748512,-7.721754,-5.395350,7.140856,2.610916,29.606270
3.800000,-0.118247,0.167049,1.273223,0.381293,1.688181,0.489237,1.105111,-0.645717,-0.888335,1.817494,-7.685732,-5.097033,6.644576,4.594623,30.038829
3.810000,-0.114378,0.183897,1.278071,0.392437,1.681341,0.480104,1.123607,-0.722309,-0.937788,1.881014,-7.629622,-4.794032,6.089935,6.574610,30.338530
3.820000,-0.110397,0.200673,1.282824,0.403768,1.673737,0.470491,1.142712,-0.798244,-0.984208,1.938892,-7.554003,-4.489597,5.476305,8.547071,30.530776
3.830000,-0.106302,0.217370,1.287479,0.415293,1.665379,0.460430,1.162364,-0.873324,-1.027575,1.990356,-7.458738,-4.183767,4.807620,10.502325,30.618040
3.840000,-0.102091,0.233979,1.292031,0.427017,1.656274,0.449950,1.182496,-0.947354,-1.067882,2.034874,-7.344046,-3.877578,4.087815,12.430692,30.602798
3.850000,-0.097761,0.250493,1.296477,0.438944,1.646436,0.439082,1.203036,-1.020141,-1.105129,2.071955,-7.210246,-3.572044,3.320823,14.322493,30.487525
3.860000,-0.093311,0.266905,1.300812,0.451078,1.635876,0.427857,1.223917,-1.091492,-1.139319,2.101946,-7.057356,-3.267280,2.490379,16.158072,30.252650
3.870000,-0.088739,0.283208,1.305033,0.463423,1.624611,0.416306,1.245047,-1.161228,-1.170484,2.122542,-6.886821,-2.966315,1.623090,17.938947,29.925393
3.880000,-0.084042,0.299395,1.309137,0.475980,1.612657,0.404458,1.266339,-1.229170,-1.198657,2.134307,-6.698787,-2.669063,0.725363,19.656660,29.510928
3.890000,-0.079219,0.315459,1.313121,0.488750,1.600034,0.392343,1.287703,-1.295147,-1.223881,2.136969,-6.493927,-2.376370,-0.196394,21.302752,29.014430
3.900000,-0.074266,0.331393,1.316983,0.501734,1.586762,0.379990,1.309047,-1.358995,-1.246203,2.130320,-6.272999,-2.089031,-1.135775,22.868767,28.441071
3.910000,-0.069183,0.347192,1.320720,0.514930,1.572862,0.367428,1.330275,-1.420545,-1.265676,2.113928,-6.035754,-1.807306,-2.079099,24.318645,27.783864
3.920000,-0.063967,0.362849,1.324331,0.528338,1.558358,0.354685,1.351294,-1.479663,-1.282372,2.088394,-5.785706,-1.533027,-3.028122,25.674909,27.061636
3.930000,-0.058616,0.378357,1.327813,0.541955,1.543277,0.341789,1.372011,-1.536215,-1.296362,2.053365,-5.522585,-1.266268,-3.977327,26.932479,26.281049
3.940000,-0.053127,0.393712,1.331166,0.555777,1.527643,0.328767,1.392330,-1.590075,-1.307724,2.008866,-5.247402,-1.007578,-4.921198,28.086279,25.448768
3.950000,-0.047499,0.408908,1.334388,0.569800,1.511485,0.315643,1.412157,-1.641126,-1.316542,1.954977,-4.961222,-0.757443,-5.854218,29.131228,24.571457
3.960000,-0.041731,0.423940,1.337479,0.584019,1.494830,0.302444,1.431393,-1.689252,-1.322903,1.891373,-4.663858,-0.516281,-6.759180,30.029419,23.655871
3.970000,-0.035818,0.438803,1.340437,0.598426,1.477709,0.289193,1.449954,-1.734376,-1.326899,1.819340,-4.359551,-0.284435,-7.643689,30.812623,22.708570
3.980000,-0.029761,0.453493,1.343262,0.613015,1.460153,0.275914,1.467751,-1.776419,-1.328624,1.738581,-4.047992,-0.062193,-8.503659,31.479783,21.736207
3.990000,-0.023558,0.468005,1.345955,0.627778,1.442191,0.262628,1.484698,-1.815315,-1.328175,1.649362,-3.730346,0.150228,-9.335005,32.029839,20.745433
4.000000,-0.017205,0.482336,1.348515,0.642706,1.423857,0.249357,1.500711,-1.851009,-1.325652,1.551990,-3.407789,0.352677,-10.133641,32.461733,19.742902
4.010000,-0.010703,0.496481,1.350942,0.657789,1.405182,0.236122,1.515705,-1.883446,-1.321161,1.446212,-3.080363,0.544569,-10.880341,32.745472,18.747884
4.020000,-0.004049,0.510438,1.353238,0.673017,1.386199,0.222940,1.529611,-1.912609,-1.314794,1.333837,-2.751977,0.727071,-11.588014,32.912475,17.752869
4.030000,0.002758,0.524204,1.355401,0.688378,1.366940,0.209832,1.542359,-1.938482,-1.306652,1.214590,-2.422494,0.899644,-12.254430,32.965228,16.762962
4.040000,0.009719,0.537776,1.357435,0.703860,1.347440,0.196813,1.553882,-1.961059,-1.296834,1.088894,-2.093045,1.062364,-12.877356,32.906215,15.783271
4.050000,0.016835,0.551152,1.359338,0.719451,1.327730,0.183900,1.564117,-1.980347,-1.285437,0.957195,-1.764734,1.215360,-13.454561,32.737922,14.818904
4.060000,0.024108,0.564330,1.361113,0.735138,1.307844,0.171109,1.573001,-1.996353,-1.272567,0.819405,-1.437889,1.358032,-13.969736,32.443807,13.894626
4.070000,0.031538,0.577309,1.362761,0.750907,1.287814,0.158454,1.580489,-2.009116,-1.258307,0.677333,-1.115349,1.492452,-14.436452,32.047710,12.993479
4.080000,0.039127,0.590086,1.364283,0.766743,1.267672,0.145948,1.586533,-2.018675,-1.242748,0.530839,-0.797259,1.617988,-14.854200,31.554446,12.118162
4.090000,0.046873,0.602662,1.365680,0.782632,1.247451,0.133603,1.591092,-2.025079,-1.225976,0.380414,-0.484568,1.734910,-15.222473,30.968830,11.271376
4.100000,0.054779,0.615035,1.366955,0.798560,1.227181,0.121432,1.594130,-2.028387,-1.208077,0.226556,-0.178174,1.843519,-15.540763,30.295674,10.455821
4.110000,0.062845,0.627205,1.368109,0.814510,1.206893,0.109445,1.595609,-2.028663,-1.189141,0.069345,0.121413,1.943377,-15.797898,29.531121,9.693469
4.120000,0.071070,0.639173,1.369145,0.830467,1.186617,0.097652,1.595509,-2.025986,-1.169235,-0.089712,0.412579,2.036643,-16.005340,28.689720,8.965387
4.130000,0.079454,0.650938,1.370063,0.846415,1.166383,0.086063,1.593809,-2.020440,-1.148432,-0.250599,0.694971,2.122800,-16.163889,27.777347,8.271916
4.140000,0.087998,0.662501,1.370867,0.862337,1.146218,0.074687,1.590492,-2.012118,-1.126801,-0.412830,0.967909,2.202197,-16.274342,26.799881,7.613397
4.150000,0.096701,0.673862,1.371558,0.878219,1.126149,0.063530,1.585549,-2.001116,-1.104409,-0.575928,1.230772,2.275186,-16.337497,25.763196,6.990169
4.160000,0.105562,0.685024,1.372138,0.894043,1.106204,0.052601,1.578970,-1.987538,-1.081323,-0.739693,1.483004,2.341578,-16.347374,24.672942,6.416251
4.170000,0.114581,0.695987,1.372610,0.909793,1.086407,0.041906,1.570756,-1.971493,-1.057596,-0.903029,1.724082,2.403014,-16.312380,23.535252,5.876631
4.180000,0.123758,0.706753,1.372977,0.925453,1.066782,0.031451,1.560911,-1.953095,-1.033281,-1.065797,1.953571,2.459221,-16.234144,22.356028,5.369973
4.190000,0.133090,0.717323,1.373240,0.941006,1.047352,0.021242,1.549443,-1.932461,-1.008428,-1.227573,2.171084,2.510519,-16.114295,21.141177,4.894943
4.200000,0.142577,0.727701,1.373403,0.956436,1.028140,0.011284,1.536364,-1.909714,-0.983086,-1.387949,2.376295,2.557220,-15.954459,19.896602,4.450206
4.210000,0.152218,0.737887,1.373467,0.971728,1.009165,0.001582,1.521689,-1.884980,-0.957300,-1.546659,2.568724,2.599378,-15.753121,18.633576,4.040532
4.220000,0.162011,0.747885,1.373435,0.986865,0.990447,-0.007861,1.505438,-1.858382,-0.931111,-1.703031,2.748665,2.637848,-15.515439,17.351977,3.657734
4.230000,0.171955,0.757697,1.373310,1.001831,0.972003,-0.017039,1.487637,-1.830049,-0.904556,-1.856853,2.915719,2.672616,-15.243427,16.057053,3.299731
4.240000,0.182047,0.767326,1.373095,1.016612,0.953851,-0.025951,1.468311,-1.800111,-0.877670,-2.007792,3.069780,2.703918,-14.939099,14.754052,2.964442
4.250000,0.192287,0.776775,1.372792,1.031193,0.936006,-0.034592,1.447491,-1.768697,-0.850488,-2.155534,3.210791,2.731973,-14.604468,13.448220,2.649783
4.260000,0.202670,0.786047,1.372404,1.045557,0.918482,-0.042960,1.425212,-1.735942,-0.823041,-2.299802,3.338403,2.757004,-14.241152,12.153615,2.352975
4.270000,0.213197,0.795146,1.371934,1.059692,0.901291,-0.051052,1.401508,-1.701972,-0.795358,-2.440287,3.453492,2.779119,-13.851609,10.865594,2.072719
4.280000,0.223863,0.804074,1.371384,1.073583,0.884446,-0.058866,1.376419,-1.666915,-0.767468,-2.576754,3.555751,2.798506,-13.437901,9.588327,1.807019
4.290000,0.234668,0.812836,1.370758,1.087216,0.867956,-0.066400,1.349987,-1.630900,-0.739396,-2.708972,3.645308,2.815301,-13.002088,8.325981,1.553879
4.300000,0.245607,0.821434,1.370057,1.100578,0.851831,-0.073653,1.322255,-1.594051,-0.711170,-2.836729,3.722334,2.829619,-12.546234,7.082725,1.311301
4.310000,0.256678,0.829874,1.369286,1.113657,0.836077,-0.080623,1.293269,-1.556498,-0.682810,-2.959778,3.786627,2.841758,-12.073875,5.873168,1.072194
4.320000,0.267879,0.838157,1.368446,1.126440,0.820703,-0.087309,1.263075,-1.518358,-0.654342,-3.078087,3.839419,2.851315,-11.585418,4.689759,0.840280
4.330000,0.279206,0.846289,1.367540,1.138915,0.805712,-0.093710,1.231723,-1.479749,-0.625791,-3.191439,3.880519,2.858583,-11.082742,3.535387,0.614188
4.340000,0.290656,0.854273,1.366572,1.151070,0.791109,-0.099825,1.199263,-1.440786,-0.597178,-3.299701,3.910233,2.863613,-10.567730,2.412944,0.392545
4.350000,0.302226,0.862112,1.365545,1.162896,0.776897,-0.105653,1.165747,-1.401581,-0.568526,-3.402759,3.928894,2.866444,-10.042263,1.325318,0.173980
4.360000,0.313913,0.869812,1.364460,1.174382,0.763078,-0.111195,1.131227,-1.362248,-0.539854,-3.500414,3.936450,2.867362,-9.510836,0.285866,-0.049532
4.370000,0.325713,0.877375,1.363322,1.185518,0.749652,-0.116451,1.095756,-1.322886,-0.511186,-3.592835,3.934275,2.865754,-8.972397,-0.714270,-0.271898
4.380000,0.337622,0.884806,1.362132,1.196294,0.736620,-0.121419,1.059388,-1.283595,-0.482546,-3.679843,3.922301,2.861926,-8.428504,-1.673483,-0.493674
4.390000,0.349638,0.892109,1.360894,1.206703,0.723980,-0.126102,1.022178,-1.244471,-0.453955,-3.761392,3.900947,2.855881,-7.880719,-2.590162,-0.715420
4.400000,0.361755,0.899287,1.359611,1.216735,0.711730,-0.130499,0.984179,-1.205606,-0.425436,-3.837450,3.870645,2.847616,-7.330603,-3.462701,-0.937694
4.410000,0.373971,0.906345,1.358285,1.226384,0.699867,-0.134611,0.945448,-1.167091,-0.397008,-3.907882,3.831465,2.837354,-6.782742,-4.279886,-1.166879
4.420000,0.386281,0.913286,1.356920,1.235642,0.688386,-0.138439,0.906039,-1.129003,-0.368696,-3.972971,3.784773,2.824535,-6.235300,-5.050890,-1.396994
4.430000,0.398682,0.920114,1.355518,1.244502,0.677285,-0.141985,0.866007,-1.091420,-0.340525,-4.032593,3.730603,2.809411,-5.689469,-5.775280,-1.627883
4.440000,0.411170,0.926833,1.354081,1.252960,0.666556,-0.145250,0.825406,-1.054415,-0.312516,-4.086770,3.669424,2.791975,-5.146438,-6.452624,-1.859391
4.450000,0.423740,0.933446,1.352613,1.261009,0.656194,-0.148236,0.784290,-1.018054,-0.284693,-4.135535,3.601709,2.772222,-4.607399,-7.082491,-2.091363
4.460000,0.436389,0.939958,1.351117,1.268644,0.646193,-0.150945,0.742714,-0.982404,-0.257078,-4.178816,3.527621,2.750290,-4.076556,-7.656553,-2.327249
4.470000,0.449112,0.946371,1.349595,1.275862,0.636544,-0.153379,0.700731,-0.947520,-0.229695,-4.216952,3.448383,2.725839,-3.551716,-8.183239,-2.562845
4.480000,0.461905,0.952690,1.348051,1.282658,0.627240,-0.155540,0.658393,-0.913453,-0.202569,-4.249873,3.364113,2.699036,-3.033701,-8.663084,-2.797556
4.490000,0.474764,0.958917,1.346486,1.289029,0.618272,-0.157431,0.615751,-0.880253,-0.175722,-4.277651,3.275276,2.669893,-2.523331,-9.096624,-3.030783
4.500000,0.487684,0.965056,1.344903,1.294972,0.609632,-0.159055,0.572856,-0.847961,-0.149179,-4.300368,3.182333,2.638427,-2.021429,-9.484393,-3.261930
4.510000,0.500662,0.971111,1.343305,1.300485,0.601310,-0.160415,0.529761,-0.816621,-0.122961,-4.318005,3.085514,2.604704,-1.531502,-9.821248,-3.491429
4.520000,0.513692,0.977084,1.341695,1.305566,0.593296,-0.161515,0.486512,-0.786262,-0.097092,-4.330911,2.985801,2.568656,-1.051356,-10.114097,-3.717528
4.530000,0.526771,0.982978,1.340076,1.310215,0.585581,-0.162359,0.443159,-0.756914,-0.071595,-4.339066,2.883374,2.530367,-0.581483,-10.364169,-3.939503
4.540000,0.539895,0.988796,1.338449,1.314429,0.578154,-0.162949,0.399747,-0.728602,-0.046492,-4.342576,2.778656,2.489882,-0.122375,-10.572694,-4.156633
4.550000,0.553059,0.994542,1.336818,1.318210,0.571005,-0.163290,0.356322,-0.701347,-0.021805,-4.341551,2.672055,2.447253,0.325474,-10.740904,-4.368195
4.560000,0.566258,1.000217,1.335184,1.321556,0.564124,-0.163386,0.312931,-0.675167,0.002446,-4.336020,2.563838,2.402495,0.759399,-10.866746,-4.572366
4.570000,0.579488,1.005825,1.333551,1.324469,0.557498,-0.163242,0.269616,-0.650074,0.026239,-4.326306,2.454698,2.355779,1.181348,-10.955134,-4.769657
4.580000,0.592746,1.011368,1.331920,1.326949,0.551119,-0.162863,0.226419,-0.626075,0.049555,-4.312433,2.344855,2.307127,1.591094,-11.007699,-4.959480
4.590000,0.606026,1.016848,1.330294,1.328998,0.544973,-0.162253,0.183381,-0.603178,0.072375,-4.294525,2.234658,2.256617,1.988412,-11.026072,-5.141247
4.600000,0.619324,1.022268,1.328676,1.330617,0.539051,-0.161417,0.140542,-0.581382,0.094681,-4.272707,2.124442,2.204331,2.373075,-11.011886,-5.314369
4.610000,0.632637,1.027630,1.327067,1.331809,0.533342,-0.160361,0.097940,-0.560688,0.116455,-4.247044,2.014482,2.150267,2.743257,-10.965726,-5.475919
4.620000,0.645959,1.032936,1.325469,1.332577,0.527834,-0.159090,0.055613,-0.541091,0.137681,-4.217814,1.905178,2.094740,3.100528,-10.890397,-5.627934
4.630000,0.659287,1.038187,1.323886,1.332922,0.522517,-0.157609,0.013595,-0.522582,0.158345,-4.185076,1.796766,2.037741,3.444859,-10.787660,-5.770112
4.640000,0.672616,1.043387,1.322318,1.332850,0.517379,-0.155925,-0.028077,-0.505151,0.178431,-4.148960,1.689510,1.979372,3.776218,-10.659273,-5.902153
4.650000,0.685942,1.048535,1.320768,1.332362,0.512410,-0.154043,-0.069373,-0.488787,0.197928,-4.109595,1.583660,1.919733,4.094576,-10.506997,-6.023755
4.660000,0.699262,1.053635,1.319238,1.331464,0.507599,-0.151968,-0.110259,-0.473473,0.216821,-4.067070,1.479473,1.858828,4.398845,-10.333328,-6.131992
4.670000,0.712570,1.058688,1.317729,1.330158,0.502937,-0.149708,-0.150704,-0.459191,0.235101,-4.021614,1.377094,1.797012,4.690181,-10.139198,-6.229507
4.680000,0.725864,1.063694,1.316244,1.328451,0.498412,-0.147268,-0.190681,-0.445924,0.252758,-3.973309,1.276752,1.734274,4.968685,-9.926277,-6.316320
4.690000,0.739138,1.068657,1.314784,1.326346,0.494015,-0.144655,-0.230161,-0.433649,0.269784,-3.922283,1.178626,1.670721,5.234456,-9.696236,-6.392450
4.700000,0.752389,1.073575,1.313351,1.323850,0.489736,-0.141875,-0.269118,-0.422343,0.286170,-3.868662,1.082879,1.606461,5.487593,-9.450743,-6.457917
4.710000,0.765614,1.078452,1.311947,1.320966,0.485565,-0.138934,-0.307526,-0.411982,0.301910,-3.812548,0.989733,1.541513,5.727582,-9.193388,-6.510597
4.720000,0.778807,1.083287,1.310573,1.317701,0.481493,-0.135839,-0.345362,-0.402540,0.316999,-3.754124,0.899138,1.476187,5.955210,-8.923686,-6.552916
4.730000,0.791967,1.088082,1.309231,1.314061,0.477511,-0.132596,-0.382601,-0.393990,0.331433,-3.693485,0.811296,1.410489,6.170654,-8.643072,-6.585155
4.740000,0.805087,1.092837,1.307922,1.310051,0.473611,-0.129212,-0.419224,-0.386304,0.345208,-3.630751,0.726308,1.344517,6.374087,-8.352980,-6.607597
4.750000,0.818166,1.097554,1.306647,1.305678,0.469783,-0.125694,-0.455210,-0.379454,0.358322,-3.566043,0.644263,1.278369,6.565684,-8.054844,-6.620524
4.760000,0.831200,1.102233,1.305408,1.300949,0.466019,-0.122048,-0.490539,-0.373408,0.370774,-3.499464,0.565335,1.212089,6.745305,-7.752659,-6.622989
4.770000,0.844184,1.106875,1.304207,1.295870,0.462312,-0.118281,-0.525193,-0.368137,0.382564,-3.431161,0.489342,1.145883,6.913478,-7.444987,-6.616653
4.780000,0.857116,1.111480,1.303043,1.290447,0.458654,-0.114399,-0.559157,-0.363611,0.393692,-3.361232,0.416449,1.079783,7.070416,-7.132948,-6.601950
4.790000,0.869992,1.116048,1.301919,1.284689,0.455037,-0.110409,-0.592413,-0.359798,0.404161,-3.289789,0.346694,1.013871,7.216332,-6.817665,-6.579310
4.800000,0.882809,1.120580,1.300835,1.278602,0.451455,-0.106318,-0.624948,-0.356666,0.413971,-3.216941,0.280103,0.948222,7.351438,-6.500257,-6.549168
4.810000,0.895563,1.125077,1.299793,1.272193,0.447902,-0.102132,-0.656747,-0.354184,0.423126,-3.142790,0.216797,0.882903,7.475812,-6.184489,-6.511748
4.820000,0.908251,1.129539,1.298793,1.265469,0.444370,-0.097858,-0.687799,-0.352320,0.431630,-3.067453,0.156532,0.818000,7.589820,-5.868516,-6.467716
4.830000,0.920871,1.133965,1.297836,1.258439,0.440853,-0.093502,-0.718093,-0.351043,0.439488,-2.991028,0.099425,0.753569,7.693691,-5.553135,-6.417528
4.840000,0.933419,1.138356,1.296923,1.251110,0.437347,-0.089070,-0.747617,-0.350321,0.446703,-2.913613,0.045465,0.689669,7.787655,-5.239145,-6.361644
4.850000,0.945893,1.142712,1.296055,1.243489,0.433845,-0.084570,-0.776362,-0.350123,0.453283,-2.835307,-0.005366,0.626354,7.871942,-4.927341,-6.300520
4.860000,0.958288,1.147033,1.295232,1.235585,0.430343,-0.080007,-0.804320,-0.350417,0.459233,-2.756203,-0.052998,0.563700,7.946716,-4.620895,-6.235265
4.870000,0.970603,1.151318,1.294455,1.227406,0.426835,-0.075387,-0.831484,-0.351173,0.464559,-2.676400,-0.097689,0.501692,8.012279,-4.317942,-6.165607
4.880000,0.982835,1.155569,1.293724,1.218958,0.423318,-0.070717,-0.857846,-0.352361,0.469269,-2.595987,-0.139370,0.440401,8.068871,-4.018987,-6.091923
4.890000,0.994982,1.159785,1.293041,1.210251,0.419787,-0.066004,-0.883402,-0.353950,0.473370,-2.515052,-0.178084,0.379866,8.116729,-3.724539,-6.014593
4.900000,1.007040,1.163965,1.292404,1.201293,0.416238,-0.061252,-0.908146,-0.355913,0.476869,-2.433681,-0.213878,0.320120,8.156091,-3.435104,-5.933993
4.910000,1.019007,1.168109,1.291816,1.192091,0.412667,-0.056468,-0.932074,-0.358218,0.479775,-2.351954,-0.246727,0.261242,8.187112,-3.153156,-5.851681
4.920000,1.030881,1.172218,1.291275,1.182654,0.409072,-0.051658,-0.955184,-0.360838,0.482097,-2.269962,-0.276872,0.203148,8.210123,-2.876995,-5.766712
4.930000,1.042659,1.176291,1.290783,1.172990,0.405450,-0.046828,-0.977473,-0.363746,0.483841,-2.187778,-0.304287,0.145916,8.225371,-2.606887,-5.679320
4.940000,1.054340,1.180327,1.290339,1.163107,0.401796,-0.041984,-0.998939,-0.366915,0.485018,-2.105479,-0.329031,0.089569,8.233103,-2.343099,-5.589737
4.950000,1.065920,1.184327,1.289943,1.153014,0.398110,-0.037130,-1.019582,-0.370318,0.485636,-2.023140,-0.351171,0.034128,8.233569,-2.085896,-5.498198
4.960000,1.077399,1.188289,1.289596,1.142719,0.394389,-0.032273,-1.039402,-0.373929,0.485704,-1.940826,-0.370714,-0.020337,8.226890,-1.837012,-5.406261
4.970000,1.088774,1.192214,1.289298,1.132229,0.390631,-0.027418,-1.058399,-0.377724,0.485232,-1.858619,-0.387868,-0.073933,8.213455,-1.595066,-5.312673
4.980000,1.100043,1.196102,1.289048,1.121553,0.386834,-0.022570,-1.076575,-0.381678,0.484229,-1.776579,-0.402639,-0.126585,8.193526,-1.360145,-5.217505
4.990000,1.111205,1.199951,1.288846,1.110700,0.382997,-0.017735,-1.093931,-0.385769,0.482703,-1.694769,-0.415095,-0.178278,8.167368,-1.132337,-5.120829
5.000000,1.122257,1.203761,1.288693,1.099677,0.379119,-0.012917,-1.110471,-0.389973,0.480666,-1.613251,-0.425309,-0.228997,8.135243,-0.911728,-5.022717
5.010000,1.133198,1.207533,1.288588,1.088493,0.375197,-0.008123,-1.126198,-0.394268,0.478127,-1.532077,-0.433315,-0.278684,8.097249,-0.699396,-4.924355
5.020000,1.144026,1.211265,1.288530,1.077156,0.371233,-0.003357,-1.141114,-0.398632,0.475096,-1.451317,-0.439277,-0.327429,8.053834,-0.494315,-4.824564
5.030000,1.154740,1.214958,1.288521,1.065674,0.367225,0.001377,-1.155225,-0.403046,0.471582,-1.371017,-0.443225,-0.375170,8.005283,-0.296451,-4.723278
5.040000,1.165339,1.218610,1.288558,1.054054,0.363172,0.006074,-1.168536,-0.407490,0.467596,-1.291227,-0.445230,-0.421890,7.951879,-0.105770,-4.620431
5.050000,1.175821,1.222221,1.288642,1.042306,0.359075,0.010728,-1.181052,-0.411945,0.463148,-1.211995,-0.445364,-0.467573,7.893905,0.077762,-4.515960
5.060000,1.186185,1.225791,1.288772,1.030436,0.354933,0.015335,-1.192778,-0.416391,0.458248,-1.133357,-0.443676,-0.512178,7.831483,0.253603,-4.410445
5.070000,1.196429,1.229319,1.288948,1.018453,0.350747,0.019891,-1.203721,-0.420813,0.452908,-1.055371,-0.440290,-0.555747,7.765079,0.422436,-4.303095
5.080000,1.206553,1.232806,1.289170,1.006364,0.346517,0.024392,-1.213888,-0.425192,0.447137,-0.978068,-0.435250,-0.598233,7.694995,0.584365,-4.193768
5.090000,1.216556,1.236250,1.289436,0.994178,0.342243,0.028832,-1.223285,-0.429512,0.440947,-0.901483,-0.428625,-0.639615,7.621535,0.739496,-4.082317
5.100000,1.226437,1.239650,1.289746,0.981901,0.337927,0.033209,-1.231920,-0.433759,0.434348,-0.825648,-0.420482,-0.679872,7.545001,0.887934,-3.968600
5.110000,1.236194,1.243008,1.290100,0.969542,0.333569,0.037518,-1.239800,-0.437917,0.427353,-0.750589,-0.410879,-0.718978,7.465628,1.029540,-3.852514
5.120000,1.245827,1.246322,1.290496,0.957107,0.329169,0.041755,-1.246934,-0.441972,0.419973,-0.676340,-0.399902,-0.756912,7.383797,1.164694,-3.733867
5.130000,1.255336,1.249591,1.290935,0.944605,0.324729,0.045916,-1.253330,-0.445911,0.412219,-0.602920,-0.387606,-0.793646,7.299819,1.293531,-3.612511
5.140000,1.264719,1.252816,1.291414,0.932043,0.320251,0.049998,-1.258996,-0.449720,0.404104,-0.530350,-0.374052,-0.829152,7.214006,1.416186,-3.488297
5.150000,1.273977,1.255996,1.291935,0.919428,0.315736,0.053997,-1.263940,-0.453388,0.395640,-0.458645,-0.359302,-0.863402,7.126670,1.532794,-3.361075
5.160000,1.283108,1.259131,1.292494,0.906767,0.311184,0.057910,-1.268171,-0.456902,0.386840,-0.387825,-0.343417,-0.896385,7.038248,1.643502,-3.230136
5.170000,1.292112,1.262220,1.293092,0.894067,0.306598,0.061733,-1.271699,-0.460252,0.377717,-0.317889,-0.326452,-0.928019,6.948911,1.748432,-3.095960
5.180000,1.300989,1.265263,1.293729,0.881335,0.301980,0.065463,-1.274532,-0.463428,0.368284,-0.248849,-0.308467,-0.958294,6.858955,1.847719,-2.958465
5.190000,1.309738,1.268259,1.294401,0.868579,0.297330,0.069098,-1.276679,-0.466419,0.358556,-0.180711,-0.289516,-0.987177,6.768676,1.941495,-2.817571
5.200000,1.318360,1.271209,1.295110,0.855804,0.292652,0.072633,-1.278149,-0.469215,0.348545,-0.113476,-0.269655,-1.014633,6.678372,2.029894,-2.673197
5.210000,1.326854,1.274112,1.295854,0.843018,0.287946,0.076068,-1.278952,-0.471809,0.338267,-0.047160,-0.248943,-1.040669,6.588764,2.113245,-2.524232
5.220000,1.335221,1.276968,1.296631,0.830227,0.283216,0.079398,-1.279096,-0.474191,0.327737,0.018282,-0.227416,-1.065152,6.499671,2.191462,-2.371751
5.230000,1.343459,1.279776,1.297441,0.817438,0.278463,0.082622,-1.278589,-0.476355,0.316969,0.082836,-0.205131,-1.088093,6.411335,2.264657,-2.215800
5.240000,1.351569,1.282537,1.298283,0.804657,0.273690,0.085737,-1.277442,-0.478292,0.305980,0.146512,-0.182139,-1.109457,6.324001,2.332939,-2.056423
5.250000,1.359552,1.285250,1.299156,0.791891,0.268898,0.088741,-1.275662,-0.479995,0.294786,0.209321,-0.158488,-1.129210,6.237914,2.396419,-1.893666
5.260000,1.367407,1.287915,1.300058,0.779146,0.264091,0.091632,-1.273259,-0.481459,0.283401,0.271243,-0.134238,-1.147369,6.154130,2.455516,-1.726301
5.270000,1.375135,1.290532,1.300988,0.766428,0.259270,0.094408,-1.270240,-0.482678,0.271844,0.332372,-0.109407,-1.163783,6.071981,2.509993,-1.555802
5.280000,1.382736,1.293100,1.301945,0.753743,0.254438,0.097068,-1.266614,-0.483646,0.260131,0.392689,-0.084054,-1.178476,5.991610,2.559921,-1.382370
5.290000,1.390210,1.295621,1.302929,0.741098,0.249598,0.099610,-1.262389,-0.484358,0.248280,0.452211,-0.058224,-1.191421,5.913161,2.605372,-1.206206
5.300000,1.397558,1.298092,1.303937,0.728498,0.244752,0.102033,-1.257572,-0.484809,0.236309,0.510959,-0.031961,-1.202591,5.836780,2.646419,-1.027512
5.310000,1.404780,1.300516,1.304969,0.715948,0.239903,0.104336,-1.252173,-0.484996,0.224234,0.568905,-0.005324,-1.212012,5.763837,2.683497,-0.845248
5.320000,1.411877,1.302890,1.306024,0.703456,0.235053,0.106518,-1.246197,-0.484914,0.212074,0.626188,0.021678,-1.219545,5.693099,2.716269,-0.661007
5.330000,1.418850,1.305217,1.307099,0.691026,0.230205,0.108577,-1.239651,-0.484561,0.199849,0.682775,0.048987,-1.225227,5.624560,2.744764,-0.475143
5.340000,1.425698,1.307495,1.308195,0.678665,0.225363,0.110514,-1.232543,-0.483934,0.187576,0.738687,0.076560,-1.229044,5.558213,2.769009,-0.288009
5.350000,1.432423,1.309724,1.309309,0.666377,0.220528,0.112329,-1.224880,-0.483029,0.175274,0.793946,0.104353,-1.230984,5.494054,2.789031,-0.099959
5.360000,1.439026,1.311905,1.310441,0.654169,0.215703,0.114020,-1.216667,-0.481846,0.162962,0.848512,0.132312,-1.231078,5.433661,2.805216,0.089593
5.370000,1.445507,1.314038,1.311589,0.642046,0.210892,0.115588,-1.207911,-0.480382,0.150659,0.902555,0.160427,-1.229234,5.375249,2.817190,0.279241
5.380000,1.451867,1.316123,1.312752,0.630013,0.206096,0.117033,-1.198618,-0.478637,0.138384,0.956023,0.188642,-1.225495,5.318617,2.824936,0.468517
5.390000,1.458107,1.318160,1.313929,0.618075,0.201320,0.118356,-1.188793,-0.476609,0.126156,1.008933,0.216912,-1.219866,5.263564,2.828437,0.656953
5.400000,1.464229,1.320149,1.315119,0.606239,0.196565,0.119557,-1.178441,-0.474299,0.113993,1.061299,0.245196,-1.212360,5.209890,2.827676,0.844080
5.410000,1.470233,1.322091,1.316320,0.594508,0.191835,0.120636,-1.167569,-0.471706,0.101914,1.113063,0.273439,-1.203008,5.159209,2.822950,1.029855
5.420000,1.476119,1.323986,1.317531,0.582889,0.187132,0.121595,-1.156182,-0.468830,0.089939,1.164405,0.301627,-1.191789,5.109285,2.813891,1.213334
5.430000,1.481891,1.325834,1.318751,0.571386,0.182459,0.122435,-1.144283,-0.465674,0.078085,1.215249,0.329702,-1.178750,5.059693,2.800445,1.393997
5.440000,1.487548,1.327636,1.319980,0.560005,0.177819,0.123157,-1.131878,-0.462237,0.066370,1.265598,0.357621,-1.163921,5.010012,2.782558,1.571326
5.450000,1.493091,1.329391,1.321214,0.548750,0.173215,0.123763,-1.118973,-0.458522,0.054812,1.315448,0.385338,-1.147337,4.959819,2.760174,1.744799
5.460000,1.498523,1.331100,1.322454,0.537627,0.168650,0.124254,-1.105572,-0.454531,0.043429,1.364719,0.412800,-1.129031,4.910509,2.733461,1.913702
5.470000,1.503844,1.332764,1.323699,0.526641,0.164126,0.124632,-1.091680,-0.450267,0.032237,1.413572,0.439982,-1.109070,4.859620,2.702115,2.077733
5.480000,1.509056,1.334383,1.324947,0.515795,0.159645,0.124900,-1.077302,-0.445732,0.021253,1.461904,0.466827,-1.087495,4.806505,2.666055,2.236400
5.490000,1.514161,1.335957,1.326197,0.505096,0.155212,0.125058,-1.062444,-0.440931,0.010492,1.509692,0.493287,-1.064362,4.750520,2.625198,2.389205
5.500000,1.519159,1.337487,1.327447,0.494548,0.150828,0.125110,-1.047110,-0.435868,-0.000029,1.556903,0.519315,-1.039732,4.691019,2.579462,2.535653
5.510000,1.524052,1.338974,1.328698,0.484156,0.146495,0.125058,-1.031308,-0.430547,-0.010297,1.603436,0.544855,-1.013640,4.628945,2.528891,2.674454
5.520000,1.528842,1.340417,1.329948,0.473923,0.142217,0.124905,-1.015044,-0.424973,-0.020298,1.649394,0.569870,-0.986231,4.561870,2.473263,2.806005
5.530000,1.533531,1.341818,1.331196,0.463856,0.137997,0.124653,-0.998323,-0.419151,-0.030018,1.694654,0.594303,-0.957545,4.488955,2.412480,2.929906
5.540000,1.538120,1.343177,1.332441,0.453958,0.133835,0.124306,-0.981153,-0.413089,-0.039445,1.739151,0.618102,-0.927660,4.409360,2.346445,3.045760
5.550000,1.542611,1.344495,1.333682,0.444235,0.129736,0.123865,-0.963542,-0.406792,-0.048567,1.782816,0.641214,-0.896658,4.322245,2.275062,3.153168
5.560000,1.547005,1.345772,1.334918,0.434689,0.125700,0.123335,-0.945500,-0.400267,-0.057374,1.825523,0.663584,-0.864577,4.227919,2.198275,3.250486
5.570000,1.551305,1.347009,1.336148,0.425326,0.121731,0.122719,-0.927035,-0.393523,-0.065855,1.867292,0.685159,-0.831623,4.124254,2.115941,3.338714
5.580000,1.555512,1.348207,1.337372,0.416150,0.117830,0.122019,-0.908158,-0.386567,-0.074003,1.907973,0.705884,-0.797834,4.010269,2.027956,3.417606
5.590000,1.559629,1.349366,1.338589,0.407164,0.114000,0.121240,-0.888880,-0.379408,-0.081810,1.947460,0.725699,-0.763303,3.884983,1.934219,3.486916
5.600000,1.563656,1.350487,1.339797,0.398373,0.110243,0.120384,-0.869213,-0.372056,-0.089267,1.985632,0.744549,-0.728128,3.747416,1.834628,3.546399
5.610000,1.567597,1.351571,1.340996,0.389781,0.106560,0.119456,-0.849172,-0.364520,-0.096370,2.022342,0.762374,-0.692351,3.597144,1.729036,3.594342
5.620000,1.571453,1.352619,1.342186,0.381391,0.102953,0.118458,-0.828772,-0.356812,-0.103113,2.057503,0.779111,-0.656210,3.432562,1.617391,3.632146
5.630000,1.575226,1.353631,1.343365,0.373207,0.099424,0.117395,-0.808028,-0.348942,-0.109493,2.090942,0.794701,-0.619742,3.252622,1.499595,3.659744
5.640000,1.578918,1.354607,1.344533,0.365232,0.095975,0.116270,-0.786959,-0.340922,-0.115507,2.122500,0.809082,-0.583049,3.056276,1.375552,3.677070
5.650000,1.582531,1.355550,1.345690,0.357469,0.092606,0.115086,-0.765585,-0.332765,-0.121153,2.152009,0.822191,-0.546235,2.842476,1.245166,3.684058
5.660000,1.586068,1.356460,1.346835,0.349921,0.089320,0.113848,-0.743926,-0.324483,-0.126431,2.179294,0.833976,-0.509346,2.610022,1.108023,3.679216
5.670000,1.589530,1.357337,1.347967,0.342591,0.086117,0.112559,-0.722007,-0.316090,-0.131341,2.204151,0.844344,-0.472621,2.358036,0.964382,3.664077
5.680000,1.592920,1.358182,1.349086,0.335482,0.082998,0.111222,-0.699852,-0.307601,-0.135884,2.226386,0.853242,-0.436098,2.085487,0.814183,3.638752
5.690000,1.596240,1.358997,1.350191,0.328595,0.079965,0.109842,-0.677489,-0.299030,-0.140064,2.245789,0.860605,-0.399880,1.791346,0.657369,3.603348
5.700000,1.599493,1.359782,1.351283,0.321932,0.077018,0.108422,-0.654946,-0.290394,-0.143883,2.262138,0.866367,-0.364065,1.474583,0.493881,3.557973
5.710000,1.602680,1.360538,1.352360,0.315496,0.074157,0.106966,-0.632256,-0.281707,-0.147346,2.275266,0.870538,-0.328707,1.132544,0.321708,3.501578
5.720000,1.605804,1.361266,1.353422,0.309288,0.071384,0.105476,-0.609453,-0.272989,-0.150459,2.284780,0.872867,-0.294013,0.766023,0.142984,3.435571
5.730000,1.608866,1.361966,1.354469,0.303307,0.068698,0.103958,-0.586573,-0.264256,-0.153229,2.290502,0.873376,-0.260027,0.374187,-0.042109,3.360203
5.740000,1.611870,1.362640,1.355501,0.297556,0.066099,0.102413,-0.563656,-0.255528,-0.155662,2.292176,0.872004,-0.226840,-0.043793,-0.233393,3.275725
5.750000,1.614818,1.363288,1.356517,0.292034,0.063587,0.100845,-0.540744,-0.246823,-0.157769,2.289536,0.868689,-0.194542,-0.488748,-0.430684,3.182388
5.760000,1.617712,1.363912,1.357518,0.286741,0.061162,0.099259,-0.517877,-0.238156,-0.159556,2.282635,0.863789,-0.163191,-0.969758,-0.644371,3.079696
5.770000,1.620554,1.364512,1.358502,0.281676,0.058824,0.097655,-0.495108,-0.229554,-0.161036,2.270417,0.856258,-0.132942,-1.478395,-0.862410,2.968737
5.780000,1.623346,1.365089,1.359471,0.276839,0.056571,0.096039,-0.472486,-0.221038,-0.162219,2.252976,0.846531,-0.103843,-2.014481,-1.083327,2.849851
5.790000,1.626091,1.365643,1.360423,0.272226,0.054402,0.094412,-0.450067,-0.212631,-0.163117,2.230037,0.834587,-0.075971,-2.577836,-1.305647,2.723381
5.800000,1.628791,1.366177,1.361359,0.267836,0.052318,0.092777,-0.427905,-0.204354,-0.163743,2.201329,0.820419,-0.049399,-3.168282,-1.527895,2.589668
5.810000,1.631449,1.366690,1.362279,0.263666,0.050314,0.091138,-0.406042,-0.196208,-0.164109,2.168266,0.806035,-0.024189,-3.828194,-1.799119,2.448773
5.820000,1.634065,1.367183,1.363182,0.259714,0.048392,0.089496,-0.384562,-0.188242,-0.164231,2.126593,0.786723,-0.000433,-4.509627,-2.061136,2.301353
5.830000,1.636644,1.367658,1.364068,0.255974,0.046549,0.087854,-0.363533,-0.180482,-0.164123,2.078020,0.764868,0.021817,-5.207194,-2.306283,2.147783
5.840000,1.639186,1.368115,1.364939,0.252441,0.044782,0.086214,-0.343025,-0.172952,-0.163800,2.022413,0.740679,0.042503,-5.915503,-2.526899,1.988440
5.850000,1.641693,1.368554,1.365793,0.249111,0.043089,0.084579,-0.323108,-0.165675,-0.163278,1.959692,0.714438,0.061568,-6.629165,-2.715324,1.823698
5.860000,1.644169,1.368977,1.366630,0.245977,0.041467,0.082949,-0.303855,-0.158669,-0.162574,1.889830,0.686505,0.078960,-7.342790,-2.863896,1.653935
5.870000,1.646613,1.369384,1.367452,0.243032,0.039915,0.081328,-0.285336,-0.151949,-0.161705,1.812854,0.657318,0.094632,-8.050989,-2.964955,1.479526
5.880000,1.649030,1.369775,1.368257,0.240267,0.038427,0.079716,-0.267621,-0.145525,-0.160688,1.728846,0.627390,0.108537,-8.748372,-3.010837,1.300847
5.890000,1.651419,1.370152,1.369046,0.237676,0.037003,0.078114,-0.250782,-0.139402,-0.159540,1.637941,0.597311,0.120635,-9.429550,-2.993883,1.118274
5.900000,1.653784,1.370515,1.369819,0.235249,0.035638,0.076525,-0.234885,-0.133578,-0.158281,1.540327,0.567747,0.130891,-10.089132,-2.906432,0.932182
5.910000,1.656125,1.370865,1.370577,0.232975,0.034330,0.074949,-0.219997,-0.128043,-0.156929,1.436248,0.539443,0.139269,-10.721730,-2.740821,0.742948
5.920000,1.658444,1.371202,1.371318,0.230845,0.033077,0.073387,-0.206180,-0.122782,-0.155502,1.326001,0.513217,0.145740,-11.321952,-2.489390,0.550948
5.930000,1.660742,1.371527,1.372044,0.228848,0.031874,0.071839,-0.193496,-0.117769,-0.154020,1.209935,0.489966,0.150280,-11.884411,-2.144477,0.356557
5.940000,1.663021,1.371840,1.372755,0.226971,0.030720,0.070307,-0.182000,-0.112969,-0.152503,1.088456,0.470664,0.152865,-12.403715,-1.698422,0.160152
5.950000,1.665282,1.372142,1.373451,0.225204,0.029614,0.068789,-0.171743,-0.108339,-0.150969,0.962023,0.456361,0.153477,-12.874477,-1.143563,-0.037892
5.960000,1.667526,1.372432,1.374131,0.223532,0.028553,0.067287,-0.162774,-0.103822,-0.149440,0.831146,0.448181,0.152103,-13.291304,-0.472238,-0.237198
5.970000,1.669753,1.372713,1.374796,0.221944,0.027537,0.065800,-0.155133,-0.099351,-0.147934,0.696394,0.447330,0.148730,-13.648809,0.323214,-0.437391
5.980000,1.671965,1.372983,1.375447,0.220425,0.026566,0.064328,-0.148857,-0.094846,-0.146472,0.558386,0.455085,0.143353,-13.941601,1.250453,-0.638096
5.990000,1.674162,1.373244,1.376083,0.218962,0.025641,0.062871,-0.143974,-0.090216,-0.145074,0.417796,0.472803,0.135968,-14.164292,2.317141,-0.838935
6.000000,1.676344,1.373496,1.376705,0.217541,0.024763,0.061427,-0.140507,-0.085352,-0.143759,0.275352,0.501918,0.126575,-14.311490,3.530939,-1.039533
