time,x,y,z,vx,vy,vz,ax,ay,az,jx,jy,jz,sx,sy,sz,roll,pitch,yaw,p,q,r
0.000000,-2.641931,-2.313792,-1.369760,0.017727,0.009281,-0.007844,-0.838427,-0.081925,0.066832,18.337384,-1.148077,-0.249075,-285.260291,160.316353,-34.012121,-0.008377,0.085841,0.000000,-0.118526,-1.870360,-0.000000
0.010000,-2.641793,-2.313703,-1.369835,0.010213,0.008430,-0.007193,-0.668665,-0.085754,0.062700,15.678626,0.346693,-0.571553,-247.108668,138.960160,-30.504972,-0.008777,0.068493,0.000000,0.035030,-1.604917,0.000000
0.020000,-2.641721,-2.313623,-1.369904,0.004271,0.007612,-0.006600,-0.523644,-0.075671,0.055516,13.383155,1.637426,-0.859602,-212.573762,119.493691,-27.126213,-0.007746,0.053631,0.000000,0.167724,-1.372734,-0.000000
0.030000,-2.641703,-2.313550,-1.369968,-0.000330,0.006957,-0.006092,-0.399909,-0.053624,0.045618,11.415680,2.742558,-1.114504,-181.480108,101.824653,-23.875419,-0.005487,0.040933,0.000000,0.280993,-1.171806,-0.000000
0.040000,-2.641724,-2.313483,-1.370026,-0.003788,0.006574,-0.005696,-0.294349,-0.021380,0.033332,9.742667,3.679602,-1.337536,-153.652246,85.860751,-20.752170,-0.002186,0.030098,0.000000,0.376427,-0.999733,0.000000
0.050000,-2.641775,-2.313418,-1.370082,-0.006269,0.006558,-0.005432,-0.204180,0.019463,0.018969,8.332334,4.465149,-1.529971,-128.914712,71.509689,-17.756044,0.001987,0.020851,0.000000,0.455669,-0.853903,-0.000000
0.060000,-2.641847,-2.313350,-1.370135,-0.007914,0.006987,-0.005322,-0.126927,0.067470,0.002830,7.154656,5.114865,-1.693079,-107.092043,58.679174,-14.886619,0.006879,0.012942,0.000000,0.520353,-0.731628,0.000000
0.070000,-2.641931,-2.313276,-1.370189,-0.008843,0.007927,-0.005381,-0.060406,0.121357,-0.014799,6.181362,5.643493,-1.828125,-88.008778,47.276910,-12.143472,0.012351,0.006148,0.000000,0.572065,-0.630231,0.000000
0.080000,-2.642022,-2.313190,-1.370244,-0.009152,0.009430,-0.005622,-0.002707,0.179982,-0.033643,5.385934,6.064856,-1.936368,-71.489454,37.210604,-9.526182,0.018282,0.000275,0.000000,0.612320,-0.547111,-0.000000
0.090000,-2.642112,-2.313086,-1.370302,-0.008921,0.011539,-0.006057,0.047823,0.242339,-0.053441,4.743611,6.391851,-2.019066,-57.358609,28.387960,-7.034326,0.024564,-0.004848,0.000000,0.642553,-0.479780,0.000000
0.100000,-2.642198,-2.312957,-1.370366,-0.008215,0.014286,-0.006693,0.092598,0.307545,-0.073943,4.231385,6.636453,-2.077471,-45.440779,20.716684,-4.667484,0.031104,-0.009368,0.000000,0.664101,-0.425894,0.000000
0.110000,-2.642275,-2.312798,-1.370437,-0.007084,0.017697,-0.007537,0.132813,0.374831,-0.094914,3.828004,6.809715,-2.112831,-35.560503,14.104481,-2.425233,0.037821,-0.013408,0.000000,0.678210,-0.383272,0.000000
0.120000,-2.642339,-2.312601,-1.370517,-0.005570,0.021788,-0.008592,0.169456,0.443535,-0.116127,3.513968,6.921765,-2.126390,-27.542318,8.459057,-0.307150,0.044647,-0.017070,0.000000,0.686019,-0.349904,0.000000
0.130000,-2.642385,-2.312360,-1.370609,-0.003704,0.026570,-0.009860,0.203331,0.513093,-0.137373,3.271535,6.981811,-2.119387,-21.210761,3.688116,1.687185,0.051524,-0.020438,0.000000,0.688568,-0.323963,0.000000
0.140000,-2.642412,-2.312067,-1.370715,-0.001511,0.032051,-0.011339,0.235072,0.583026,-0.158451,3.084716,6.998135,-2.093057,-16.390371,-0.300635,3.558195,0.058404,-0.023577,0.000000,0.686789,-0.303808,-0.000000
0.150000,-2.642415,-2.311716,-1.370837,0.000992,0.038231,-0.013028,0.265163,0.652935,-0.179174,2.939276,6.978098,-2.048633,-12.905684,-3.599491,5.306302,0.065248,-0.026539,0.000000,0.681509,-0.287985,0.000000
0.160000,-2.642391,-2.311300,-1.370976,0.003788,0.045108,-0.014921,0.293954,0.722488,-0.199367,2.822735,6.928137,-1.987339,-10.581238,-6.300747,6.931928,0.072025,-0.029359,0.000000,0.673451,-0.275225,-0.000000
0.170000,-2.642338,-2.310812,-1.371136,0.006867,0.052678,-0.017013,0.321678,0.791416,-0.218868,2.724368,6.853767,-1.910401,-9.241571,-8.496698,8.435494,0.078710,-0.032064,0.000000,0.663231,-0.264448,-0.000000
0.180000,-2.642253,-2.310244,-1.371317,0.010219,0.060934,-0.019295,0.348472,0.859498,-0.237527,2.635206,6.759580,-1.819035,-8.711221,-10.279638,9.817423,0.085284,-0.034668,0.000000,0.651360,-0.254758,0.000000
0.190000,-2.642133,-2.309591,-1.371522,0.013834,0.069865,-0.021760,0.374389,0.926554,-0.255205,2.548031,6.649244,-1.714456,-8.814724,-11.741862,11.078137,0.091733,-0.037179,0.000000,0.638246,-0.245439,0.000000
0.200000,-2.641975,-2.308845,-1.371753,0.017703,0.079461,-0.024396,0.399420,0.992438,-0.271776,2.457383,6.525504,-1.597875,-9.376618,-12.975664,12.218057,0.098046,-0.039597,0.000000,0.624198,-0.235955,-0.000000
0.210000,-2.641778,-2.307999,-1.372011,0.021831,0.089701,-0.027191,0.423071,1.057327,-0.287127,2.318919,6.418009,-1.470501,-9.195044,-14.776128,13.237726,0.104245,-0.041876,0.000000,0.612154,-0.221956,-0.000000
0.220000,-2.641538,-2.307049,-1.372297,0.026176,0.100593,-0.030134,0.445801,1.120740,-0.301154,2.226884,6.261789,-1.333526,-9.246617,-16.446704,14.137431,0.110285,-0.044061,0.000000,0.595740,-0.212709,0.000000
0.230000,-2.641253,-2.305986,-1.372614,0.030744,0.112110,-0.033210,0.467604,1.182510,-0.313769,2.133375,6.089487,-1.188151,-9.481557,-17.993630,14.917579,0.116156,-0.046156,0.000000,0.578193,-0.203491,-0.000000
0.240000,-2.640922,-2.304804,-1.372962,0.035525,0.124237,-0.036404,0.488458,1.242480,-0.324893,2.036807,5.902308,-1.035571,-9.850082,-19.423146,15.578576,0.121846,-0.048158,0.000000,0.559642,-0.194141,0.000000
0.250000,-2.640542,-2.303499,-1.373342,0.040510,0.136954,-0.039703,0.508326,1.300510,-0.334460,1.936094,5.701395,-0.876976,-10.302412,-20.741491,16.120831,0.127345,-0.050067,0.000000,0.540198,-0.184547,0.000000
0.260000,-2.640111,-2.302063,-1.373756,0.045691,0.150240,-0.043088,0.527030,1.356484,-0.342410,1.818336,5.489519,-0.712936,-10.477849,-21.997629,16.529262,0.132649,-0.051865,0.000000,0.520141,-0.173450,0.000000
0.270000,-2.639628,-2.300492,-1.374204,0.051051,0.164075,-0.046545,0.544687,1.410260,-0.348707,1.712583,5.263696,-0.546086,-10.675599,-23.149842,16.821660,0.137746,-0.053566,0.000000,0.499132,-0.163660,0.000000
0.280000,-2.639090,-2.298780,-1.374687,0.056582,0.178437,-0.050057,0.561275,1.461722,-0.353324,1.604789,5.026866,-0.376882,-10.883952,-24.199136,17.000330,0.142629,-0.055170,0.000000,0.477452,-0.153800,-0.000000
0.290000,-2.638496,-2.296922,-1.375205,0.062273,0.193302,-0.053606,0.576776,1.510764,-0.356241,1.494907,4.780053,-0.206450,-11.091199,-25.146520,17.067573,0.147293,-0.056674,0.000000,0.455177,-0.143851,0.000000
0.300000,-2.637844,-2.294912,-1.375759,0.068113,0.208644,-0.057176,0.591167,1.557293,-0.357452,1.383008,4.524272,-0.035894,-11.285629,-25.992999,17.025695,0.151731,-0.058078,0.000000,0.432373,-0.133805,-0.000000
0.310000,-2.637133,-2.292747,-1.376349,0.074093,0.224439,-0.060750,0.604393,1.601217,-0.356953,1.265862,4.259943,0.134517,-11.369298,-26.724866,16.856548,0.155938,-0.059377,0.000000,0.409063,-0.123338,-0.000000
0.320000,-2.636362,-2.290422,-1.376974,0.080199,0.240660,-0.064310,0.616482,1.642469,-0.354769,1.151857,3.989441,0.301810,-11.427291,-27.359646,16.585391,0.159911,-0.060575,0.000000,0.385399,-0.113234,0.000000
0.330000,-2.635529,-2.287933,-1.377635,0.086419,0.257279,-0.067840,0.627428,1.680986,-0.350928,1.037406,3.713065,0.465901,-11.458456,-27.900147,16.217029,0.163645,-0.061671,0.000000,0.361383,-0.103134,0.000000
0.340000,-2.634633,-2.285275,-1.378331,0.092743,0.274270,-0.071323,0.637229,1.716714,-0.345465,0.922782,3.431743,0.625842,-11.461643,-28.349178,15.756272,0.167138,-0.062665,0.000000,0.337062,-0.093046,0.000000
0.350000,-2.633673,-2.282446,-1.379061,0.099160,0.291604,-0.074744,0.645884,1.749607,-0.338428,0.808270,3.146377,0.780734,-11.435701,-28.709548,15.207927,0.170386,-0.063558,0.000000,0.312474,-0.082981,-0.000000
0.360000,-2.632649,-2.279442,-1.379826,0.105658,0.309253,-0.078087,0.653388,1.779630,-0.329863,0.693416,2.857745,0.930373,-11.360476,-28.981706,14.560430,0.173386,-0.064349,0.000000,0.287660,-0.072881,0.000000
0.370000,-2.631560,-2.276260,-1.380623,0.112224,0.327187,-0.081336,0.659756,1.806755,-0.319843,0.580309,2.566913,1.072421,-11.256148,-29.171110,13.836965,0.176138,-0.065038,0.000000,0.262647,-0.062922,0.000000
0.380000,-2.630405,-2.272898,-1.381452,0.118849,0.345378,-0.084479,0.664998,1.830963,-0.308440,0.468386,2.274588,1.206882,-11.123893,-29.280858,13.044344,0.178639,-0.065627,0.000000,0.237467,-0.053039,0.000000
0.390000,-2.629183,-2.269352,-1.382312,0.125520,0.363797,-0.087501,0.669128,1.852244,-0.295733,0.357921,1.981551,1.333100,-10.964888,-29.314049,12.189378,0.180887,-0.066116,0.000000,0.212151,-0.043242,-0.000000
0.400000,-2.627894,-2.265621,-1.383201,0.132228,0.382413,-0.090390,0.672162,1.870594,-0.281808,0.249174,1.688552,1.450484,-10.780310,-29.273780,11.278880,0.182881,-0.066506,0.000000,0.186724,-0.033544,-0.000000
0.410000,-2.626538,-2.261703,-1.384119,0.138960,0.401199,-0.093133,0.674117,1.886019,-0.266752,0.142333,1.396436,1.558795,-10.569752,-29.166341,10.312584,0.184621,-0.066799,0.000000,0.161232,-0.023950,-0.000000
0.420000,-2.625115,-2.257597,-1.385064,0.145707,0.420124,-0.095721,0.675016,1.898528,-0.250665,0.037785,1.105593,1.656915,-10.336167,-28.991249,9.305247,0.186106,-0.066994,0.000000,0.135660,-0.014485,-0.000000
0.430000,-2.623624,-2.253300,-1.386033,0.152457,0.439160,-0.098144,0.674881,1.908138,-0.233647,-0.064318,0.816828,1.744789,-10.080925,-28.751209,8.264548,0.187334,-0.067094,0.000000,0.110054,-0.005154,-0.000000
0.440000,-2.622066,-2.248813,-1.387026,0.159201,0.458277,-0.100391,0.673739,1.914873,-0.215804,-0.163766,0.530776,1.822121,-9.805397,-28.448929,7.198166,0.188307,-0.067100,0.000000,0.084442,0.004030,0.000000
0.450000,-2.620440,-2.244135,-1.388040,0.165928,0.477448,-0.102457,0.671615,1.918764,-0.197241,-0.260363,0.248048,1.888692,-9.510952,-28.087118,6.113780,0.189023,-0.067012,0.000000,0.058854,0.013054,0.000000
0.460000,-2.618747,-2.239264,-1.389074,0.172630,0.496643,-0.104334,0.668542,1.919848,-0.178068,-0.353883,-0.030718,1.944216,-9.200066,-27.669966,5.022758,0.189484,-0.066834,0.000000,0.033324,0.021903,-0.000000
0.470000,-2.616988,-2.234202,-1.390126,0.179296,0.515835,-0.106017,0.664548,1.918165,-0.158393,-0.444261,-0.305104,1.988972,-8.872868,-27.198514,3.928637,0.189690,-0.066567,0.000000,0.007878,0.030569,-0.000000
0.480000,-2.615161,-2.228948,-1.391194,0.185918,0.534997,-0.107501,0.659668,1.913762,-0.138325,-0.531290,-0.574516,2.022802,-8.530594,-26.675288,2.838645,0.189642,-0.066213,0.000000,-0.017446,0.039035,0.000000
0.490000,-2.613269,-2.223502,-1.392276,0.192487,0.554102,-0.108782,0.653934,1.906693,-0.117973,-0.614826,-0.838446,2.045783,-8.174478,-26.102813,1.760009,0.189342,-0.065773,0.000000,-0.042608,0.047286,-0.000000
0.500000,-2.611312,-2.217866,-1.393369,0.198994,0.573122,-0.109860,0.647383,1.897013,-0.097445,-0.694738,-1.096416,2.058064,-7.805756,-25.483615,0.699957,0.188791,-0.065250,0.000000,-0.067571,0.055308,-0.000000
0.510000,-2.609290,-2.212040,-1.394472,0.205432,0.592033,-0.110731,0.640052,1.884785,-0.076852,-0.770881,-1.348020,2.059350,-7.426222,-24.818990,-0.321194,0.187991,-0.064648,0.000000,-0.092304,0.063086,-0.000000
0.520000,-2.607204,-2.206026,-1.395583,0.211793,0.610810,-0.111397,0.631979,1.870076,-0.056292,-0.843203,-1.592712,2.051161,-7.036484,-24.112843,-1.310911,0.186946,-0.063967,0.000000,-0.116728,0.070600,0.000000
0.530000,-2.605054,-2.199824,-1.396699,0.218069,0.629427,-0.111857,0.623201,1.852955,-0.035862,-0.911581,-1.830147,2.033255,-6.637706,-23.367850,-2.263568,0.185658,-0.063211,0.000000,-0.140813,0.077836,0.000000
0.540000,-2.602843,-2.193438,-1.397819,0.224254,0.647861,-0.112115,0.613760,1.833498,-0.015658,-0.975931,-2.059949,2.006032,-6.231056,-22.586687,-3.173543,0.184131,-0.062384,0.000000,-0.164510,0.084777,-0.000000
0.550000,-2.600569,-2.186868,-1.398941,0.230342,0.666089,-0.112171,0.603696,1.811783,0.004230,-1.036180,-2.281769,1.969945,-5.817700,-21.772030,-4.035212,0.182369,-0.061488,0.000000,-0.187767,0.091408,0.000000
0.560000,-2.598236,-2.180117,-1.400062,0.236326,0.684090,-0.112031,0.593051,1.787890,0.023705,-1.092254,-2.495355,1.924742,-5.399108,-20.924827,-4.823627,0.180377,-0.060526,0.000000,-0.210552,0.097716,-0.000000
0.570000,-2.595843,-2.173187,-1.401181,0.242201,0.701840,-0.111699,0.581865,1.761904,0.042699,-1.144134,-2.700250,1.872801,-4.976105,-20.049693,-5.554854,0.178160,-0.059502,0.000000,-0.232765,0.103675,-0.000000
0.580000,-2.593392,-2.166081,-1.402296,0.247962,0.719321,-0.111179,0.570182,1.733914,0.061138,-1.191766,-2.896265,1.813847,-4.549820,-19.149516,-6.225633,0.175723,-0.058421,0.000000,-0.254374,0.109276,-0.000000
0.590000,-2.590884,-2.158801,-1.403404,0.253604,0.736512,-0.110478,0.558044,1.704010,0.078955,-1.235123,-3.083166,1.748500,-4.121384,-18.227182,-6.832706,0.173074,-0.057284,0.000000,-0.275325,0.114503,-0.000000
0.600000,-2.588321,-2.151352,-1.404505,0.259122,0.753395,-0.109602,0.545494,1.672282,0.096089,-1.274190,-3.260745,1.677416,-3.691924,-17.285580,-7.372815,0.170219,-0.056097,0.000000,-0.295568,0.119343,-0.000000
0.610000,-2.585702,-2.143734,-1.405595,0.264512,0.769952,-0.108558,0.532575,1.638826,0.112477,-1.308924,-3.428810,1.600424,-3.263521,-16.327924,-7.821118,0.167165,-0.054864,0.000000,-0.315062,0.123783,0.000000
0.620000,-2.583031,-2.135954,-1.406675,0.269772,0.786166,-0.107355,0.519330,1.603738,0.128083,-1.339422,-3.587244,1.520266,-2.836237,-15.356734,-8.198584,0.163921,-0.053588,0.000000,-0.333726,0.127811,0.000000
0.630000,-2.580307,-2.128012,-1.407742,0.274898,0.802022,-0.105999,0.505801,1.567114,0.142871,-1.365656,-3.735909,1.436690,-2.411085,-14.374857,-8.504596,0.160494,-0.052274,0.000000,-0.351528,0.131417,0.000000
0.640000,-2.577533,-2.119914,-1.408795,0.279887,0.817504,-0.104500,0.492031,1.529053,0.156808,-1.387654,-3.874715,1.350414,-1.989077,-13.385140,-8.738540,0.156893,-0.050927,0.000000,-0.368423,0.134593,-0.000000
0.650000,-2.574710,-2.111664,-1.409832,0.284738,0.832598,-0.102866,0.478062,1.489653,0.169872,-1.405451,-4.003595,1.262162,-1.571226,-12.390432,-8.899799,0.153128,-0.049550,0.000000,-0.384369,0.137331,0.000000
0.660000,-2.571839,-2.103264,-1.410852,0.289448,0.847293,-0.101106,0.463937,1.449016,0.182039,-1.419014,-4.122371,1.171870,-1.160609,-11.397252,-8.967731,0.149209,-0.048149,0.000000,-0.399327,0.139623,-0.000000
0.670000,-2.568922,-2.094719,-1.411853,0.294016,0.861575,-0.099228,0.449695,1.407239,0.193309,-1.428591,-4.231377,1.082151,-0.755921,-10.404324,-8.964201,0.145145,-0.046728,0.000000,-0.413267,0.141475,-0.000000
0.680000,-2.565959,-2.086034,-1.412836,0.298441,0.875434,-0.097242,0.435378,1.364421,0.203683,-1.434155,-4.330466,0.992818,-0.357924,-9.414047,-8.891046,0.140947,-0.045291,0.000000,-0.426160,0.142881,-0.000000
0.690000,-2.562953,-2.077212,-1.413798,0.302724,0.888860,-0.095157,0.421025,1.320662,0.213169,-1.435774,-4.419675,0.904556,0.032622,-8.428815,-8.750102,0.136626,-0.043843,0.000000,-0.437980,0.143842,-0.000000
0.700000,-2.559905,-2.068258,-1.414739,0.306862,0.901844,-0.092982,0.406676,1.276060,0.221780,-1.433529,-4.499067,0.818035,0.414958,-7.451028,-8.543208,0.132191,-0.042389,0.000000,-0.448708,0.144358,0.000000
0.710000,-2.556817,-2.059176,-1.415657,0.310857,0.914379,-0.090724,0.392369,1.230716,0.229531,-1.427388,-4.568468,0.733289,0.785366,-6.489664,-8.256626,0.127655,-0.040932,0.000000,-0.458313,0.144426,-0.000000
0.720000,-2.553689,-2.049972,-1.416553,0.314710,0.926456,-0.088394,0.378140,1.184723,0.236456,-1.417721,-4.628605,0.652409,1.146406,-5.539732,-7.909674,0.123029,-0.039478,0.000000,-0.466829,0.144072,-0.000000
0.730000,-2.550523,-2.040649,-1.417425,0.318420,0.938071,-0.085998,0.364026,1.138176,0.242591,-1.404493,-4.679306,0.575284,1.497678,-4.602825,-7.506096,0.118323,-0.038030,0.000000,-0.474232,0.143294,0.000000
0.740000,-2.547321,-2.031212,-1.418273,0.321991,0.949218,-0.083545,0.350062,1.091168,0.247976,-1.387802,-4.720710,0.502463,1.838785,-3.680534,-7.049637,0.113548,-0.036593,0.000000,-0.480524,0.142100,0.000000
0.750000,-2.544083,-2.021666,-1.419096,0.325422,0.959893,-0.081041,0.336281,1.043792,0.252657,-1.367752,-4.752971,0.434455,2.169328,-2.774449,-6.544041,0.108716,-0.035171,0.000000,-0.485713,0.140501,-0.000000
0.760000,-2.540813,-2.012016,-1.419893,0.328717,0.970093,-0.078493,0.322719,0.996142,0.256679,-1.344326,-4.775950,0.371355,2.485730,-1.893946,-5.983496,0.103838,-0.033768,0.000000,-0.489780,0.138496,-0.000000
0.770000,-2.537510,-2.002266,-1.420665,0.331877,0.979815,-0.075909,0.309405,0.948302,0.260103,-1.317932,-4.790564,0.314494,2.791162,-1.031879,-5.382471,0.098924,-0.032387,0.000000,-0.492810,0.136126,-0.000000
0.780000,-2.534176,-1.992421,-1.421411,0.334906,0.989059,-0.073293,0.296370,0.900359,0.262990,-1.288539,-4.796651,0.263825,3.085615,-0.188888,-4.745882,0.093985,-0.031033,0.000000,-0.494789,0.133390,0.000000
0.790000,-2.530812,-1.982486,-1.422131,0.337806,0.997823,-0.070651,0.283644,0.852397,0.265401,-1.256256,-4.794407,0.219678,3.369081,0.634388,-4.078641,0.089031,-0.029709,0.000000,-0.495743,0.130302,0.000000
0.800000,-2.527420,-1.972466,-1.422824,0.340580,1.006107,-0.067987,0.271254,0.804498,0.267406,-1.221194,-4.784031,0.182338,3.641550,1.437312,-3.385664,0.084073,-0.028418,0.000000,-0.495696,0.126877,-0.000000
0.810000,-2.524001,-1.962366,-1.423491,0.343232,1.013913,-0.065304,0.259230,0.756745,0.269070,-1.183362,-4.765465,0.151904,3.900474,2.212531,-2.668561,0.079121,-0.027164,0.000000,-0.494654,0.123120,0.000000
0.820000,-2.520556,-1.952190,-1.424130,0.345766,1.021243,-0.062606,0.247596,0.709214,0.270468,-1.143107,-4.739550,0.128871,4.148696,2.966943,-1.935953,0.074183,-0.025949,0.000000,-0.492710,0.119069,0.000000
0.830000,-2.517086,-1.941942,-1.424743,0.348185,1.028098,-0.059895,0.236376,0.661979,0.271672,-1.100422,-4.706195,0.113219,4.386517,3.700730,-1.193161,0.069270,-0.024777,0.000000,-0.489868,0.114728,0.000000
0.840000,-2.513592,-1.931629,-1.425328,0.350495,1.034483,-0.057173,0.225595,0.615114,0.272757,-1.055410,-4.665604,0.105024,4.614241,4.414077,-0.445502,0.064389,-0.023650,0.000000,-0.486162,0.110111,-0.000000
0.850000,-2.510076,-1.921254,-1.425886,0.352699,1.040402,-0.054440,0.215275,0.568690,0.273798,-1.008170,-4.617981,0.104307,4.832170,5.107167,0.301705,0.059549,-0.022571,0.000000,-0.481629,0.105233,-0.000000
0.860000,-2.506539,-1.910823,-1.426417,0.354802,1.045859,-0.051697,0.205439,0.522779,0.274869,-0.958752,-4.563383,0.111127,5.039444,5.776540,1.040898,0.054759,-0.021542,0.000000,-0.476287,0.100102,-0.000000
0.870000,-2.502981,-1.900339,-1.426920,0.356809,1.050859,-0.048942,0.196107,0.477445,0.276045,-0.907359,-4.502352,0.125189,5.237670,6.426469,1.769276,0.050026,-0.020566,0.000000,-0.470210,0.094742,0.000000
0.880000,-2.499403,-1.889807,-1.427396,0.358726,1.055410,-0.046175,0.187298,0.432753,0.277397,-0.854028,-4.434917,0.146460,5.427293,7.057583,2.481794,0.045357,-0.019646,0.000000,-0.463415,0.089162,0.000000
0.890000,-2.495806,-1.879232,-1.427844,0.360557,1.059517,-0.043394,0.179033,0.388767,0.278997,-0.798841,-4.361261,0.174755,5.608758,7.670513,3.173410,0.040760,-0.018782,0.000000,-0.455936,0.083372,0.000000
0.900000,-2.492192,-1.868618,-1.428264,0.362308,1.063188,-0.040594,0.171328,0.345548,0.280915,-0.741878,-4.281565,0.209842,5.782509,8.265888,3.839077,0.036241,-0.017977,0.000000,-0.447805,0.077382,0.000000
0.910000,-2.488560,-1.857970,-1.428655,0.363985,1.066431,-0.037774,0.164200,0.303155,0.283219,-0.683236,-4.196018,0.251699,5.949537,8.844807,4.467041,0.031806,-0.017234,0.000000,-0.439055,0.071205,-0.000000
0.920000,-2.484912,-1.847291,-1.429019,0.365594,1.069254,-0.034929,0.157668,0.261647,0.285969,-0.622935,-4.104744,0.299365,6.109673,9.407373,5.059791,0.027462,-0.016553,0.000000,-0.429712,0.064844,-0.000000
0.930000,-2.481249,-1.836586,-1.429354,0.367141,1.071667,-0.032053,0.151747,0.221079,0.289225,-0.561065,-4.007924,0.352764,6.263297,9.954157,5.613105,0.023214,-0.015937,0.000000,-0.419805,0.058309,-0.000000
0.940000,-2.477570,-1.825859,-1.429660,0.368631,1.073679,-0.029142,0.146452,0.181506,0.293042,-0.497689,-3.905712,0.411481,6.410787,10.485731,6.122760,0.019067,-0.015387,0.000000,-0.409358,0.051608,-0.000000
0.950000,-2.473876,-1.815114,-1.429937,0.370072,1.075300,-0.026190,0.141798,0.142982,0.297471,-0.432868,-3.798258,0.475059,6.552521,11.002668,6.584534,0.015028,-0.014905,0.000000,-0.398395,0.044746,-0.000000
0.960000,-2.470168,-1.804354,-1.430184,0.371470,1.076542,-0.023191,0.137798,0.105556,0.302562,-0.366743,-3.685883,0.543403,6.691047,11.510019,6.983991,0.011101,-0.014493,0.000000,-0.386955,0.037736,0.000000
0.970000,-2.466447,-1.793584,-1.430400,0.372830,1.077415,-0.020137,0.134468,0.069281,0.308351,-0.299162,-3.568304,0.615011,6.824307,12.003328,7.328374,0.007291,-0.014151,0.000000,-0.375013,0.030562,-0.000000
0.980000,-2.462712,-1.782807,-1.430586,0.374161,1.077932,-0.017021,0.131819,0.034206,0.314873,-0.230274,-3.445863,0.689777,6.952414,12.482617,7.614710,0.003602,-0.013882,0.000000,-0.362606,0.023239,0.000000
0.990000,-2.458964,-1.772027,-1.430741,0.375469,1.078104,-0.013837,0.129866,0.000380,0.322155,-0.160130,-3.318699,0.767102,7.075480,12.947909,7.840028,0.000040,-0.013687,0.000000,-0.349748,0.015768,0.000000
1.000000,-2.455203,-1.761246,-1.430863,0.376761,1.077944,-0.010576,0.128621,-0.032152,0.330221,-0.088781,-3.186951,0.846364,7.193617,13.399228,8.001356,-0.003391,-0.013567,0.000000,-0.336452,0.008152,-0.000000
1.010000,-2.451429,-1.750469,-1.430952,0.378044,1.077465,-0.007230,0.128093,-0.063348,0.339093,-0.016404,-3.051046,0.927424,7.310225,13.843802,8.082640,-0.006688,-0.013524,0.000000,-0.322760,0.000408,0.000000
1.020000,-2.447642,-1.739698,-1.431007,0.379325,1.076681,-0.003791,0.128297,-0.093159,0.348772,0.057260,-2.910446,1.008373,7.421726,14.273566,8.095593,-0.009845,-0.013559,0.000000,-0.308608,-0.007496,-0.000000
1.030000,-2.443842,-1.728936,-1.431027,0.380612,1.075607,-0.000252,0.129242,-0.121543,0.359259,0.132013,-2.765627,1.089104,7.527831,14.687661,8.038845,-0.012859,-0.013674,0.000000,-0.294039,-0.015540,-0.000000
1.040000,-2.440029,-1.718187,-1.431012,0.381913,1.074255,0.003397,0.130940,-0.148458,0.370551,0.207798,-2.616748,1.168913,7.628249,15.085228,7.911027,-0.015725,-0.013871,0.000000,-0.279061,-0.023724,-0.000000
1.050000,-2.436204,-1.707452,-1.430959,0.383234,1.072643,0.007162,0.133401,-0.173865,0.382632,0.284558,-2.463980,1.247083,7.722692,15.465407,7.710769,-0.018439,-0.014149,0.000000,-0.263680,-0.032044,-0.000000
1.060000,-2.432365,-1.696735,-1.430868,0.384583,1.070783,0.011052,0.136633,-0.197728,0.395491,0.362091,-2.307806,1.323497,7.814405,15.835043,7.421176,-0.020997,-0.014512,0.000000,-0.247938,-0.040484,0.000000
1.070000,-2.428512,-1.686037,-1.430737,0.385969,1.068693,0.015074,0.140646,-0.220009,0.409091,0.440665,-2.147690,1.395955,7.899129,16.184629,7.058305,-0.023396,-0.014960,0.000000,-0.231761,-0.049072,-0.000000
1.080000,-2.424645,-1.675361,-1.430566,0.387399,1.066389,0.019236,0.145449,-0.240671,0.423397,0.520048,-1.984186,1.464420,7.976141,16.512363,6.622687,-0.025631,-0.015494,0.000000,-0.215195,-0.057788,0.000000
1.090000,-2.420764,-1.664710,-1.430352,0.388881,1.063885,0.023544,0.151049,-0.259682,0.438364,0.600159,-1.817522,1.528168,8.044717,16.816442,6.114854,-0.027699,-0.016116,0.000000,-0.198249,-0.066625,-0.000000
1.100000,-2.416867,-1.654084,-1.430095,0.390422,1.061201,0.028005,0.157454,-0.277012,0.453942,0.680911,-1.647942,1.586479,8.104133,17.095065,5.535338,-0.029595,-0.016828,0.000000,-0.180935,-0.075577,-0.000000
1.110000,-2.412955,-1.643486,-1.429792,0.392032,1.058351,0.032625,0.164668,-0.292634,0.470080,0.762102,-1.475927,1.639324,8.156372,17.351878,4.867346,-0.031316,-0.017629,0.000000,-0.163290,-0.084623,0.000000
1.120000,-2.409026,-1.632918,-1.429442,0.393719,1.055354,0.037408,0.172698,-0.306522,0.486705,0.843882,-1.301247,1.684371,8.197674,17.578961,4.130854,-0.032860,-0.018521,0.000000,-0.145270,-0.093777,-0.000000
1.130000,-2.405081,-1.622380,-1.429043,0.395489,1.052226,0.042360,0.181547,-0.318652,0.503742,0.926015,-1.124455,1.721721,8.226985,17.773846,3.328515,-0.034221,-0.019506,0.000000,-0.126921,-0.103014,0.000000
1.140000,-2.401116,-1.611874,-1.428594,0.397352,1.048987,0.047484,0.191219,-0.329005,0.521112,1.008378,-0.945885,1.750730,8.243251,17.934063,2.462983,-0.035397,-0.020583,0.000000,-0.108265,-0.112319,0.000000
1.150000,-2.397133,-1.601400,-1.428093,0.399316,1.045652,0.052783,0.201715,-0.337565,0.538727,1.090833,-0.765897,1.770779,8.245417,18.057141,1.536910,-0.036385,-0.021754,0.000000,-0.089328,-0.121675,0.000000
1.160000,-2.393130,-1.590961,-1.427538,0.401389,1.042241,0.058259,0.213035,-0.344320,0.556503,1.173207,-0.584894,1.781978,8.233168,18.141109,0.535197,-0.037183,-0.023018,0.000000,-0.070145,-0.131058,0.000000
1.170000,-2.389105,-1.580556,-1.426927,0.403580,1.038772,0.063913,0.225178,-0.349261,0.574332,1.255410,-0.403238,1.782099,8.204620,18.182938,-0.519578,-0.037787,-0.024377,0.000000,-0.050741,-0.140451,0.000000
1.180000,-2.385058,-1.570185,-1.426259,0.405896,1.035262,0.069745,0.238142,-0.352384,0.592109,1.337241,-0.221384,1.771426,8.158629,18.180099,-1.622588,-0.038197,-0.025829,0.000000,-0.031159,-0.149825,0.000000
1.190000,-2.380987,-1.559851,-1.425531,0.408345,1.031730,0.075755,0.251921,-0.353689,0.609723,1.418520,-0.039793,1.749502,8.094049,18.130061,-2.769007,-0.038410,-0.027375,0.000000,-0.011447,-0.159152,-0.000000
1.200000,-2.376890,-1.549551,-1.424743,0.410937,1.028194,0.081939,0.266510,-0.353182,0.627060,1.499056,0.141051,1.715917,8.009737,18.030293,-3.954008,-0.038426,-0.029014,0.000000,0.008346,-0.168400,0.000000
1.210000,-2.372767,-1.539287,-1.423892,0.413678,1.024673,0.088294,0.281900,-0.350870,0.644008,1.578725,0.320887,1.670932,7.902524,17.871990,-5.188483,-0.038243,-0.030745,0.000000,0.028185,-0.177546,-0.000000
1.220000,-2.368616,-1.529057,-1.422977,0.416577,1.021183,0.094817,0.298081,-0.346771,0.660437,1.657124,0.498591,1.612759,7.773536,17.659666,-6.449963,-0.037862,-0.032567,0.000000,0.047949,-0.186526,-0.000000
1.230000,-2.364435,-1.518863,-1.421995,0.419642,1.017743,0.101501,0.315038,-0.340906,0.676221,1.734120,0.673894,1.541865,7.621877,17.391557,-7.731697,-0.037284,-0.034478,0.000000,0.067597,-0.195312,-0.000000
1.240000,-2.360223,-1.508702,-1.420946,0.422881,1.014371,0.108339,0.332758,-0.333303,0.691232,1.809483,0.846230,1.458080,7.446649,17.065901,-9.026934,-0.036511,-0.036475,0.000000,0.087054,-0.203862,0.000000
1.250000,-2.355977,-1.498575,-1.419828,0.426300,1.011083,0.115323,0.351221,-0.323993,0.705339,1.882972,1.015014,1.361304,7.246955,16.680936,-10.328925,-0.035544,-0.038557,0.000000,0.106240,-0.212132,0.000000
1.260000,-2.351696,-1.488480,-1.418639,0.429907,1.007896,0.122442,0.370412,-0.313011,0.718419,1.954534,1.180171,1.251906,7.016928,16.221631,-11.641139,-0.034387,-0.040720,0.000000,0.125125,-0.220097,0.000000
1.270000,-2.347378,-1.478417,-1.417379,0.433710,1.004828,0.129687,0.390304,-0.300406,0.730334,2.023447,1.339835,1.128964,6.761249,15.701117,-12.945352,-0.033043,-0.042960,0.000000,0.143485,-0.227654,-0.000000
1.280000,-2.343021,-1.468383,-1.416045,0.437716,1.001893,0.137045,0.410872,-0.286232,0.740955,2.089673,1.493988,0.993053,6.479631,15.119258,-14.233562,-0.031519,-0.045274,0.000000,0.161289,-0.234780,0.000000
1.290000,-2.338623,-1.458378,-1.414637,0.441930,0.999108,0.144501,0.432088,-0.270547,0.750152,2.152952,1.642016,0.844373,6.171783,14.475915,-15.497765,-0.029819,-0.047656,0.000000,0.178440,-0.241425,0.000000
1.300000,-2.334182,-1.448401,-1.413155,0.446360,0.996487,0.152043,0.453920,-0.253414,0.757800,2.213020,1.783301,0.683204,5.837418,13.770952,-16.729959,-0.027952,-0.050103,0.000000,0.194839,-0.247538,0.000000
1.310000,-2.329695,-1.438448,-1.411596,0.451010,0.994044,0.159652,0.476340,-0.234898,0.763776,2.269898,1.917955,0.509945,5.469000,12.985895,-17.923109,-0.025925,-0.052608,0.000000,0.210466,-0.253103,0.000000
1.320000,-2.325161,-1.428519,-1.409961,0.455888,0.991793,0.167312,0.499306,-0.215083,0.767960,2.322636,2.043639,0.324946,5.074374,12.141187,-19.068127,-0.023746,-0.055164,0.000000,0.225029,-0.257996,-0.000000
1.330000,-2.320577,-1.418612,-1.408250,0.460998,0.989747,0.175005,0.522779,-0.194054,0.770238,2.371300,2.160587,0.128770,4.654140,11.238937,-20.156891,-0.021428,-0.057767,0.000000,0.238521,-0.262205,0.000000
1.340000,-2.315940,-1.408723,-1.406461,0.466345,0.987916,0.182710,0.546717,-0.171902,0.770500,2.415636,2.268233,-0.077978,4.208896,10.281252,-21.181280,-0.018980,-0.060407,0.000000,0.250845,-0.265690,0.000000
1.350000,-2.311249,-1.398852,-1.404596,0.471934,0.986312,0.190408,0.571076,-0.148722,0.768645,2.455397,2.366034,-0.294614,3.739242,9.270240,-22.133173,-0.016415,-0.063079,0.000000,0.261912,-0.268409,-0.000000
1.360000,-2.306501,-1.388996,-1.402653,0.477768,0.984944,0.198076,0.595812,-0.124607,0.764573,2.490653,2.454233,-0.520815,3.237898,8.188661,-22.993279,-0.013745,-0.065774,0.000000,0.271721,-0.270358,0.000000
1.370000,-2.301693,-1.379153,-1.400634,0.483851,0.983822,0.205692,0.620872,-0.099674,0.758202,2.520432,2.530515,-0.754687,2.714306,7.060339,-23.766014,-0.010985,-0.068484,0.000000,0.279991,-0.271433,-0.000000
1.380000,-2.296823,-1.369319,-1.398540,0.490186,0.982953,0.213232,0.646203,-0.074035,0.749455,2.544870,2.595299,-0.995821,2.170029,5.889752,-24.444626,-0.008150,-0.071200,0.000000,0.286749,-0.271644,-0.000000
1.390000,-2.291888,-1.359493,-1.396370,0.496776,0.982344,0.220673,0.671751,-0.047808,0.738265,2.563769,2.648184,-1.243243,1.606629,4.681377,-25.022360,-0.005256,-0.073914,0.000000,0.291937,-0.270973,0.000000
1.400000,-2.286887,-1.349671,-1.394127,0.503622,0.981999,0.227989,0.697460,-0.021113,0.724573,2.576944,2.688815,-1.495910,1.025670,3.439690,-25.492463,-0.002317,-0.076617,0.000000,0.295508,-0.269407,0.000000
1.410000,-2.281815,-1.339852,-1.391811,0.510725,0.981922,0.235156,0.723273,0.005933,0.708322,2.584476,2.717478,-1.753660,0.422462,2.154119,-25.824201,0.000650,-0.079299,0.000000,0.297492,-0.266959,0.000000
1.420000,-2.276671,-1.330032,-1.389424,0.518087,0.982118,0.242147,0.749129,0.033194,0.689490,2.585627,2.732495,-2.013070,-0.194413,0.846033,-26.037738,0.003627,-0.081953,0.000000,0.297710,-0.263587,0.000000
1.430000,-2.271452,-1.320209,-1.386969,0.525708,0.982586,0.248937,0.774965,0.060539,0.668056,2.580550,2.734344,-2.274008,-0.822626,-0.478248,-26.129257,0.006598,-0.084568,0.000000,0.296231,-0.259321,-0.000000
1.440000,-2.266156,-1.310379,-1.384446,0.533586,0.983328,0.255499,0.800719,0.087836,0.644009,2.569145,2.722897,-2.535236,-1.459848,-1.812404,-26.094940,0.009546,-0.087136,0.000000,0.293059,-0.254177,0.000000
1.450000,-2.260780,-1.300541,-1.381859,0.541722,0.984343,0.261808,0.826326,0.114952,0.617354,2.551331,2.698084,-2.795475,-2.103750,-3.150117,-25.930971,0.012454,-0.089649,0.000000,0.288216,-0.248180,0.000000
1.460000,-2.255321,-1.290692,-1.379211,0.550112,0.985626,0.267838,0.851725,0.141756,0.588093,2.527154,2.660135,-3.054772,-2.754511,-4.490913,-25.599151,0.015305,-0.092098,0.000000,0.281758,-0.241357,0.000000
1.470000,-2.249777,-1.280828,-1.376504,0.558755,0.987176,0.273562,0.876848,0.168110,0.556272,2.496347,2.608560,-3.308549,-3.406988,-5.821910,-25.134254,0.018084,-0.094474,0.000000,0.273679,-0.233750,-0.000000
1.480000,-2.244145,-1.270947,-1.373741,0.567648,0.988987,0.278955,0.901630,0.193883,0.521939,2.459018,2.543753,-3.557014,-4.058544,-7.136071,-24.536675,0.020774,-0.096771,0.000000,0.264067,-0.225401,-0.000000
1.490000,-2.238423,-1.261047,-1.370926,0.576786,0.991051,0.283993,0.926006,0.218942,0.485154,2.415188,2.465918,-3.798842,-4.706545,-8.426361,-23.806806,0.023360,-0.098981,0.000000,0.252993,-0.216357,0.000000
1.500000,-2.232608,-1.251125,-1.368062,0.586166,0.993363,0.288650,0.949912,0.243159,0.445989,2.364907,2.375329,-4.032711,-5.348353,-9.685744,-22.945041,0.025829,-0.101097,0.000000,0.240542,-0.206669,0.000000
1.510000,-2.226699,-1.241179,-1.365154,0.595783,0.995911,0.292905,0.973282,0.266405,0.404514,2.308153,2.272089,-4.258853,-5.978863,-10.901099,-21.912657,0.028167,-0.103113,0.000000,0.226777,-0.196367,0.000000
1.520000,-2.220692,-1.231206,-1.362206,0.605630,0.998687,0.296734,0.996054,0.288561,0.360849,2.245257,2.157183,-4.472289,-6.598212,-12.072220,-20.753952,0.030361,-0.105024,0.000000,0.211872,-0.185575,-0.000000
1.530000,-2.214586,-1.221205,-1.359221,0.615702,1.001679,0.300115,1.018167,0.309510,0.315109,2.176233,2.030813,-4.673528,-7.204067,-13.192817,-19.474110,0.032400,-0.106825,0.000000,0.195900,-0.174322,0.000000
1.540000,-2.208377,-1.211172,-1.356205,0.625991,1.004873,0.303030,1.039559,0.329141,0.267423,2.101228,1.893516,-4.861385,-7.794094,-14.256599,-18.078314,0.034276,-0.108511,0.000000,0.178974,-0.162670,0.000000
1.550000,-2.202065,-1.201107,-1.353162,0.636490,1.008257,0.305458,1.060172,0.347346,0.217929,2.020412,1.745891,-5.034725,-8.365959,-15.257275,-16.571747,0.035977,-0.110079,0.000000,0.161212,-0.150681,-0.000000
1.560000,-2.195647,-1.191006,-1.350097,0.647192,1.011815,0.307383,1.079945,0.364018,0.166765,1.933674,1.587852,-5.193834,-8.909651,-16.169626,-14.925084,0.037496,-0.111525,0.000000,0.142649,-0.138370,-0.000000
1.570000,-2.189121,-1.180870,-1.347016,0.658086,1.015532,0.308789,1.098828,0.379074,0.114109,1.841949,1.421898,-5.334447,-9.431456,-17.008608,-13.182242,0.038828,-0.112848,0.000000,0.123602,-0.125908,-0.000000
1.580000,-2.182484,-1.170695,-1.343923,0.669165,1.019391,0.309661,1.116767,0.392429,0.060136,1.745122,1.247938,-5.457190,-9.929981,-17.770248,-11.352628,0.039967,-0.114045,0.000000,0.104096,-0.113300,-0.000000
1.590000,-2.175737,-1.160482,-1.340825,0.680419,1.023375,0.309988,1.133714,0.404009,0.005028,1.643432,1.066764,-5.561242,-10.403832,-18.450573,-9.445650,0.040909,-0.115115,0.000000,0.084245,-0.100600,-0.000000
1.600000,-2.168875,-1.150227,-1.337725,0.691836,1.027465,0.309758,1.149621,0.413743,-0.051024,1.537132,0.879211,-5.645876,-10.851618,-19.045611,-7.470718,0.041651,-0.116058,0.000000,0.064161,-0.087860,-0.000000
1.610000,-2.161899,-1.139932,-1.334631,0.703407,1.031643,0.308965,1.164437,0.421562,-0.107831,1.426046,0.685005,-5.711224,-11.260699,-19.522473,-5.417968,0.042190,-0.116873,0.000000,0.043836,-0.075073,0.000000
1.620000,-2.154807,-1.129594,-1.331548,0.715121,1.035890,0.307600,1.178128,0.427429,-0.165179,1.311508,0.487769,-5.754940,-11.642305,-19.909642,-3.318439,0.042528,-0.117561,0.000000,0.023654,-0.062411,0.000000
1.630000,-2.147597,-1.119214,-1.328481,0.726966,1.040185,0.305660,1.190655,0.431306,-0.222859,1.193291,0.287112,-5.777476,-11.996420,-20.206688,-1.183899,0.042664,-0.118123,0.000000,0.003575,-0.049850,0.000000
1.640000,-2.140267,-1.108791,-1.325437,0.738930,1.044509,0.303143,1.201983,0.433163,-0.280657,1.071671,0.083937,-5.778540,-12.323030,-20.413177,0.973883,0.042600,-0.118560,0.000000,-0.016311,-0.037424,-0.000000
1.650000,-2.132818,-1.098324,-1.322420,0.751002,1.048842,0.300047,1.212078,0.432979,-0.338358,0.946922,-0.120848,-5.757960,-12.622119,-20.528678,3.143140,0.042339,-0.118873,0.000000,-0.035923,-0.025161,-0.000000
1.660000,-2.125247,-1.087814,-1.319438,0.763168,1.053162,0.296376,1.220907,0.430731,-0.395744,0.818903,-0.327495,-5.715625,-12.883138,-20.523374,5.310753,0.041881,-0.119064,0.000000,-0.055299,-0.013044,0.000000
1.670000,-2.117554,-1.077261,-1.316495,0.775416,1.057450,0.292134,1.228448,0.426431,-0.452598,0.688877,-0.532333,-5.651724,-13.117894,-20.429816,7.466470,0.041234,-0.119135,0.000000,-0.074104,-0.001186,0.000000
1.680000,-2.109738,-1.066665,-1.313597,0.787732,1.061684,0.287327,1.234677,0.420089,-0.508707,0.556629,-0.735808,-5.566374,-13.327660,-20.251170,9.598689,0.040401,-0.119088,0.000000,-0.092408,0.010445,-0.000000
1.690000,-2.101799,-1.056027,-1.310750,0.800105,1.065845,0.281963,1.239574,0.411722,-0.563855,0.422403,-0.937083,-5.459867,-13.513710,-19.990601,11.695807,0.039388,-0.118926,0.000000,-0.110160,0.021842,-0.000000
1.700000,-2.093736,-1.045348,-1.307959,0.812519,1.069912,0.276054,1.243120,0.401357,-0.617835,0.286430,-1.135357,-5.332614,-13.677318,-19.651275,13.746221,0.038200,-0.118652,0.000000,-0.127320,0.033002,0.000000
1.710000,-2.085549,-1.034629,-1.305231,0.824963,1.073866,0.269611,1.245295,0.389020,-0.670432,0.148721,-1.330613,-5.184353,-13.814566,-19.217259,15.718510,0.036843,-0.118267,0.000000,-0.143920,0.043936,0.000000
1.720000,-2.077237,-1.023871,-1.302569,0.837421,1.077686,0.262650,1.246090,0.374761,-0.721457,0.009971,-1.520321,-5.017584,-13.932556,-18.713157,17.623317,0.035324,-0.117773,0.000000,-0.159768,0.054626,0.000000
1.730000,-2.068800,-1.013076,-1.299979,0.849880,1.081355,0.255188,1.245491,0.358631,-0.770721,-0.129872,-1.704661,-4.832142,-14.033196,-18.144474,19.451466,0.033650,-0.117174,0.000000,-0.174922,0.065094,-0.000000
1.740000,-2.060239,-1.002245,-1.297467,0.862326,1.084853,0.247242,1.243489,0.340687,-0.818040,-0.270642,-1.883014,-4.628840,-14.118398,-17.516713,21.193782,0.031828,-0.116471,0.000000,-0.189368,0.075352,-0.000000
1.750000,-2.051554,-0.991380,-1.295036,0.874745,1.088163,0.238834,1.240076,0.320993,-0.863241,-0.412195,-2.054817,-4.408583,-14.190070,-16.835380,22.841089,0.029865,-0.115667,0.000000,-0.203095,0.085418,0.000000
1.760000,-2.042744,-0.980482,-1.292692,0.887123,1.091267,0.229985,1.235244,0.299613,-0.906145,-0.554310,-2.219712,-4.171109,-14.252511,-16.102181,24.352479,0.027768,-0.114763,0.000000,-0.216114,0.095290,0.000000
1.770000,-2.033811,-0.969555,-1.290438,0.899445,1.094150,0.220719,1.228988,0.276624,-0.946615,-0.697105,-2.376890,-3.920482,-14.304949,-15.326884,25.754393,0.025545,-0.113761,0.000000,-0.228398,0.105044,-0.000000
1.780000,-2.024756,-0.958600,-1.288279,0.911698,1.096795,0.211061,1.221301,0.252102,-0.984510,-0.840381,-2.526129,-3.656404,-14.349002,-14.515459,27.041543,0.023202,-0.112662,0.000000,-0.239966,0.114677,-0.000000
1.790000,-2.015578,-0.947620,-1.286218,0.923866,1.099187,0.201037,1.212179,0.226129,-1.019702,-0.984062,-2.667098,-3.380051,-14.386286,-13.673876,28.208639,0.020748,-0.111467,0.000000,-0.250828,0.124218,0.000000
1.800000,-2.006279,-0.936617,-1.284259,0.935936,1.101313,0.190676,1.201618,0.198788,-1.052074,-1.128090,-2.799526,-3.092649,-14.418419,-12.808103,29.250389,0.018188,-0.110177,0.000000,-0.260995,0.133694,-0.000000
1.810000,-1.996859,-0.925595,-1.282405,0.947894,1.103158,0.180005,1.189620,0.170171,-1.081507,-1.272059,-2.922813,-2.794054,-14.456102,-11.933886,30.125524,0.015531,-0.108793,0.000000,-0.270447,0.143089,0.000000
1.820000,-1.987321,-0.914555,-1.280660,0.959724,1.104712,0.169056,1.176176,0.140361,-1.107928,-1.416796,-3.037722,-2.488971,-14.490756,-11.046222,30.869140,0.012781,-0.107315,0.000000,-0.279290,0.152544,-0.000000
1.830000,-1.977665,-0.903501,-1.279025,0.971412,1.105962,0.157857,1.161283,0.109447,-1.131264,-1.561866,-3.143708,-2.177113,-14.522885,-10.149885,31.480352,0.009947,-0.105742,0.000000,-0.287501,0.162036,0.000000
1.840000,-1.967894,-0.892437,-1.277503,0.982945,1.106897,0.146441,1.144937,0.077517,-1.151452,-1.707247,-3.240707,-1.859808,-14.552995,-9.249648,31.958276,0.007033,-0.104074,0.000000,-0.295099,0.171596,0.000000
1.850000,-1.958007,-0.881365,-1.276097,0.994306,1.107509,0.134839,1.127137,0.044663,-1.168446,-1.852921,-3.328704,-1.538394,-14.581591,-8.350284,32.302028,0.004047,-0.102310,0.000000,-0.302105,0.181253,0.000000
1.860000,-1.948008,-0.870288,-1.274807,1.005482,1.107788,0.123082,1.107883,0.010980,-1.182197,-1.998392,-3.407063,-1.212884,-14.621398,-7.473449,32.477029,0.000994,-0.100449,0.000000,-0.308481,0.190982,0.000000
1.870000,-1.937898,-0.859210,-1.273636,1.016459,1.107726,0.111205,1.087168,-0.023450,-1.192700,-2.144797,-3.477447,-0.887789,-14.659204,-6.604965,32.520216,-0.002121,-0.098489,0.000000,-0.314392,0.200944,-0.000000
1.880000,-1.927680,-0.848134,-1.272583,1.027221,1.107316,0.099239,1.064986,-0.058540,-1.199953,-2.291566,-3.539199,-0.562908,-14.694017,-5.747538,32.434828,-0.005292,-0.096429,0.000000,-0.319790,0.211103,-0.000000
1.890000,-1.917355,-0.837065,-1.271651,1.037754,1.106553,0.087217,1.041335,-0.094205,-1.203964,-2.438664,-3.592444,-0.239510,-14.724845,-4.903873,32.224109,-0.008515,-0.094267,0.000000,-0.324693,0.221484,0.000000
1.900000,-1.906925,-0.826005,-1.270839,1.048043,1.105431,0.075171,1.016212,-0.130361,-1.204752,-2.586046,-3.637332,0.081167,-14.750697,-4.076676,31.891299,-0.011785,-0.091999,0.000000,-0.329121,0.232108,0.000000
1.910000,-1.896395,-0.814957,-1.270148,1.058073,1.103944,0.063132,0.989618,-0.166918,-1.202342,-2.733228,-3.673396,0.398979,-14.781439,-3.284932,31.412887,-0.015095,-0.089624,0.000000,-0.333033,0.242951,-0.000000
1.920000,-1.885765,-0.803927,-1.269576,1.067830,1.102091,0.051134,0.961546,-0.203803,-1.196791,-2.881162,-3.702370,0.710245,-14.803892,-2.513075,30.822144,-0.018444,-0.087138,0.000000,-0.336581,0.254142,0.000000
1.930000,-1.875039,-0.792917,-1.269125,1.077299,1.099868,0.039207,0.931994,-0.240940,-1.188158,-3.029270,-3.723727,1.015069,-14.815734,-1.761814,30.125586,-0.021826,-0.084539,0.000000,-0.339712,0.265642,-0.000000
1.940000,-1.864220,-0.781931,-1.268792,1.086465,1.097272,0.027381,0.900961,-0.278253,-1.176514,-3.177434,-3.737677,1.312426,-14.814646,-1.031863,29.329730,-0.025237,-0.081823,0.000000,-0.342439,0.277461,-0.000000
1.950000,-1.853311,-0.770973,-1.268577,1.095313,1.094302,0.015686,0.868446,-0.315669,-1.161938,-3.325512,-3.744437,1.601354,-14.798305,-0.323933,28.441093,-0.028673,-0.078987,0.000000,-0.344770,0.289606,-0.000000
1.960000,-1.842315,-0.760046,-1.268477,1.103829,1.090958,0.004151,0.834454,-0.353114,-1.144511,-3.473119,-3.743838,1.881618,-14.770001,0.351332,27.449580,-0.032130,-0.076028,0.000000,-0.346678,0.302055,0.000000
1.970000,-1.831235,-0.749155,-1.268493,1.111997,1.087240,-0.007195,0.798985,-0.390524,-1.124340,-3.620593,-3.737041,2.150828,-14.721115,1.004368,26.380355,-0.035605,-0.072942,0.000000,-0.348247,0.314866,-0.000000
1.980000,-1.820076,-0.738303,-1.268621,1.119804,1.083148,-0.018327,0.762044,-0.427833,-1.101531,-3.767463,-3.723823,2.408994,-14.648639,1.635678,25.241970,-0.039094,-0.069725,0.000000,-0.349442,0.328003,0.000000
1.990000,-1.808840,-0.727493,-1.268859,1.127233,1.078684,-0.029217,0.723638,-0.464980,-1.076199,-3.913477,-3.704399,2.655466,-14.549566,2.245768,24.042975,-0.042593,-0.066375,0.000000,-0.350263,0.341455,-0.000000
2.000000,-1.797533,-0.716730,-1.269204,1.134272,1.073849,-0.039843,0.683778,-0.501901,-1.048463,-4.058356,-3.678977,2.889680,-14.420886,2.835140,22.791923,-0.046098,-0.062889,0.000000,-0.350705,0.355204,0.000000
2.010000,-1.786156,-0.706017,-1.269655,1.140904,1.068647,-0.050179,0.642476,-0.538539,-1.018446,-4.201846,-3.647698,3.111323,-14.258093,3.402661,21.493239,-0.049606,-0.059263,0.000000,-0.350760,0.369234,-0.000000
2.020000,-1.774716,-0.695358,-1.270207,1.147116,1.063079,-0.060205,0.599747,-0.574837,-0.986280,-4.343466,-3.610916,3.319614,-14.059862,3.950673,20.160105,-0.053112,-0.055494,0.000000,-0.350434,0.383504,0.000000
2.030000,-1.763215,-0.684757,-1.270857,1.152894,1.057151,-0.069898,0.555613,-0.610739,-0.952099,-4.482915,-3.568747,3.514440,-13.823367,4.479883,18.801577,-0.056613,-0.051581,0.000000,-0.349713,0.397986,-0.000000
2.040000,-1.751659,-0.674217,-1.271603,1.158224,1.050866,-0.079240,0.510098,-0.646194,-0.916037,-4.619797,-3.521378,3.695591,-13.545783,4.990993,17.426713,-0.060105,-0.047521,0.000000,-0.348586,0.412642,0.000000
2.050000,-1.740053,-0.663741,-1.272441,1.163092,1.044229,-0.088213,0.463228,-0.681150,-0.878233,-4.753685,-3.468986,3.862950,-13.224286,5.484710,16.044568,-0.063583,-0.043313,0.000000,-0.347043,0.427425,0.000000
2.060000,-1.728399,-0.653333,-1.273366,1.167484,1.037245,-0.096799,0.415032,-0.715560,-0.838828,-4.884429,-3.411919,4.016102,-12.848412,5.966265,14.673976,-0.067044,-0.038955,0.000000,-0.345088,0.442314,0.000000
2.070000,-1.716704,-0.642997,-1.274376,1.171388,1.029920,-0.104985,0.365552,-0.749373,-0.797956,-5.010832,-3.349918,4.156025,-12.423910,6.431280,13.313019,-0.070484,-0.034447,0.000000,-0.342673,0.457182,-0.000000
2.080000,-1.704973,-0.632736,-1.275465,1.174791,1.022260,-0.112754,0.314830,-0.782543,-0.755753,-5.132739,-3.283348,4.282420,-11.948892,6.879908,11.969557,-0.073896,-0.029788,0.000000,-0.339803,0.472001,-0.000000
2.090000,-1.693210,-0.622553,-1.276629,1.177681,1.014271,-0.120096,0.262914,-0.815025,-0.712352,-5.249635,-3.212373,4.395501,-11.421467,7.312298,10.651449,-0.077278,-0.024981,0.000000,-0.336468,0.486704,-0.000000
2.100000,-1.681421,-0.612451,-1.277865,1.180046,1.005962,-0.126998,0.209856,-0.846776,-0.667886,-5.360987,-3.137156,4.495560,-10.839746,7.728601,9.366555,-0.080624,-0.020026,0.000000,-0.332656,0.501219,0.000000
2.110000,-1.669611,-0.602435,-1.279168,1.181874,0.997338,-0.133450,0.155710,-0.877757,-0.622493,-5.466686,-3.058099,4.582070,-10.190642,8.135141,8.145448,-0.083930,-0.014924,0.000000,-0.328375,0.515514,-0.000000
2.120000,-1.657786,-0.592506,-1.280533,1.183157,0.988409,-0.139444,0.100545,-0.907925,-0.576285,-5.565111,-2.974784,4.657609,-9.484835,8.525138,6.970493,-0.087190,-0.009680,0.000000,-0.323577,0.529404,0.000000
2.130000,-1.645950,-0.582668,-1.281955,1.183882,0.979183,-0.144973,0.044432,-0.937240,-0.529379,-5.656192,-2.887653,4.721650,-8.721806,8.897988,5.846767,-0.090400,-0.004297,0.000000,-0.318277,0.542855,-0.000000
2.140000,-1.634110,-0.572923,-1.283431,1.184042,0.969667,-0.150030,-0.012552,-0.965666,-0.481889,-5.739355,-2.796883,4.774732,-7.901037,9.253085,4.779349,-0.093554,0.001220,0.000000,-0.312471,0.555782,0.000000
2.150000,-1.622271,-0.563275,-1.284954,1.183629,0.959872,-0.154609,-0.070327,-0.993166,-0.433919,-5.814019,-2.702653,4.817442,-7.022011,9.589824,3.773316,-0.096647,0.006865,0.000000,-0.306159,0.568096,-0.000000
2.160000,-1.610439,-0.553726,-1.286521,1.182634,0.949807,-0.158707,-0.128808,-1.019710,-0.385585,-5.880085,-2.605314,4.849189,-6.071924,9.911751,2.864823,-0.099675,0.012633,0.000000,-0.299348,0.579752,0.000000
2.170000,-1.598620,-0.544280,-1.288127,1.181051,0.939482,-0.162320,-0.187896,-1.045262,-0.336965,-5.935813,-2.504670,4.873577,-5.064048,10.213600,2.024066,-0.102633,0.018515,0.000000,-0.292035,0.590550,0.000000
2.180000,-1.586820,-0.534938,-1.289766,1.178874,0.928906,-0.165445,-0.247489,-1.069794,-0.288141,-5.981177,-2.401113,4.889901,-3.999367,10.494257,1.252319,-0.105515,0.024504,0.000000,-0.284236,0.600452,-0.000000
2.190000,-1.575045,-0.525703,-1.291434,1.176099,0.918089,-0.168082,-0.307483,-1.093276,-0.239191,-6.015614,-2.294859,4.898857,-2.878867,10.752607,0.550854,-0.108316,0.030588,0.000000,-0.275963,0.609367,0.000000
2.200000,-1.563300,-0.516577,-1.293126,1.172723,0.907044,-0.170229,-0.367763,-1.115683,-0.190186,-6.038571,-2.186139,4.901156,-1.703536,10.987538,-0.079054,-0.111032,0.036759,0.000000,-0.267236,0.617206,0.000000
2.210000,-1.551592,-0.507562,-1.294837,1.168744,0.895779,-0.171886,-0.428219,-1.136991,-0.141202,-6.049977,-2.075213,4.896216,-0.462441,11.198502,-0.603213,-0.113659,0.043005,0.000000,-0.258064,0.623922,-0.000000
2.220000,-1.539927,-0.498662,-1.296562,1.164159,0.884307,-0.173053,-0.488721,-1.157180,-0.092278,-6.048181,-1.962280,4.887856,0.830056,11.383749,-1.057301,-0.116192,0.049314,0.000000,-0.248501,0.629333,-0.000000
2.230000,-1.528311,-0.489877,-1.298296,1.158970,0.872639,-0.173731,-0.549139,-1.176231,-0.043459,-6.033213,-1.847628,4.875294,2.171508,11.542094,-1.444077,-0.118628,0.055673,0.000000,-0.238566,0.633404,0.000000
2.240000,-1.516750,-0.481210,-1.300035,1.153177,0.860787,-0.173923,-0.609340,-1.194128,0.005216,-6.004596,-1.731531,4.859189,3.559471,11.672355,-1.766299,-0.120962,0.062067,0.000000,-0.228289,0.636058,0.000000
2.250000,-1.505250,-0.472662,-1.301773,1.146784,0.848761,-0.173628,-0.669184,-1.210858,0.053715,-5.961876,-1.614278,4.840174,4.991500,11.773348,-2.026726,-0.123193,0.068483,0.000000,-0.217710,0.637222,-0.000000
2.260000,-1.493816,-0.464235,-1.303506,1.139795,0.836573,-0.172849,-0.728533,-1.226409,0.102000,-5.905071,-1.496023,4.817719,6.476359,11.840266,-2.199509,-0.125315,0.074904,0.000000,-0.206836,0.636862,-0.000000
2.270000,-1.482456,-0.455931,-1.305229,1.132216,0.824237,-0.171588,-0.787235,-1.240777,0.150065,-5.832724,-1.377415,4.795083,7.999020,11.875993,-2.319516,-0.127329,0.081315,0.000000,-0.195782,0.634827,-0.000000
2.280000,-1.471174,-0.447751,-1.306936,1.124053,0.811762,-0.169848,-0.845137,-1.253957,0.197898,-5.744977,-1.258609,4.771484,9.555666,11.879788,-2.393008,-0.129230,0.087699,0.000000,-0.184558,0.631101,0.000000
2.290000,-1.459977,-0.439696,-1.308624,1.115316,0.799161,-0.167631,-0.902082,-1.265949,0.245493,-5.641510,-1.139928,4.747357,11.142481,11.850913,-2.426245,-0.131019,0.094037,0.000000,-0.173212,0.625630,-0.000000
2.300000,-1.448869,-0.431768,-1.310287,1.106015,0.786447,-0.164939,-0.957913,-1.276757,0.292845,-5.522039,-1.021702,4.723072,12.755646,11.788627,-2.425490,-0.132694,0.100313,0.000000,-0.161792,0.618365,0.000000
2.310000,-1.437858,-0.423967,-1.311921,1.096162,0.773630,-0.161775,-1.012474,-1.286383,0.339947,-5.386759,-0.903972,4.698202,14.402386,11.684683,-2.378369,-0.134255,0.106509,0.000000,-0.150303,0.609301,0.000000
2.320000,-1.426948,-0.416295,-1.313521,1.085771,0.760723,-0.158141,-1.065593,-1.294840,0.386811,-5.234427,-0.787787,4.674737,16.066490,11.546769,-2.312059,-0.135701,0.112604,0.000000,-0.138894,0.598309,0.000000
2.330000,-1.416144,-0.408753,-1.315082,1.074856,0.747737,-0.154039,-1.117106,-1.302143,0.433444,-5.065389,-0.673149,4.651996,17.742786,11.375062,-2.235102,-0.137033,0.118579,0.000000,-0.127567,0.585399,0.000000
2.340000,-1.405453,-0.401341,-1.316600,1.063434,0.734684,-0.149473,-1.166845,-1.308310,0.479853,-4.879548,-0.560398,4.630042,19.426105,11.169743,-2.156041,-0.138252,0.124416,0.000000,-0.116370,0.570543,-0.000000
2.350000,-1.394877,-0.394060,-1.318070,1.051525,0.721575,-0.144443,-1.214641,-1.313359,0.526047,-4.676860,-0.449866,4.608854,21.111278,10.930991,-2.083419,-0.139361,0.130093,0.000000,-0.105347,0.553715,-0.000000
2.360000,-1.384424,-0.386910,-1.319488,1.039149,0.708420,-0.138952,-1.260331,-1.317311,0.572031,-4.457732,-0.341486,4.588198,22.803213,10.648821,-2.022598,-0.140360,0.135592,0.000000,-0.094499,0.534936,-0.000000
2.370000,-1.374096,-0.379891,-1.320848,1.026326,0.695232,-0.133003,-1.303740,-1.320198,0.617813,-4.221278,-0.236542,4.568180,24.485428,10.334821,-1.985691,-0.141252,0.140892,0.000000,-0.083975,0.514092,-0.000000
2.380000,-1.363899,-0.373005,-1.322146,1.013082,0.682020,-0.126597,-1.344700,-1.322053,0.663396,-3.968078,-0.134891,4.548374,26.151517,9.990416,-1.981629,-0.142040,0.145971,0.000000,-0.073762,0.491216,0.000000
2.390000,-1.353836,-0.366251,-1.323378,0.999441,0.668794,-0.119736,-1.383046,-1.322908,0.708780,-3.698323,-0.036830,4.528408,27.795077,9.617029,-2.019346,-0.142728,0.150809,0.000000,-0.063896,0.466296,0.000000
2.400000,-1.343911,-0.359629,-1.324539,0.985430,0.655565,-0.112422,-1.418612,-1.322802,0.753962,-3.412272,0.057358,4.507819,29.409704,9.216083,-2.107772,-0.143319,0.155385,0.000000,-0.054408,0.439327,0.000000
2.410000,-1.334128,-0.353140,-1.325625,0.971079,0.642341,-0.104657,-1.451245,-1.321771,0.798938,-3.110906,0.147777,4.486625,31.005635,8.779588,-2.270276,-0.143817,0.159680,0.000000,-0.045293,0.410383,0.000000
2.420000,-1.324490,-0.346782,-1.326631,0.956416,0.629132,-0.096444,-1.480778,-1.319862,0.843688,-2.793049,0.233291,4.462835,32.557786,8.319536,-2.499586,-0.144227,0.163672,0.000000,-0.036652,0.379273,-0.000000
2.430000,-1.315001,-0.340557,-1.327553,0.941474,0.615947,-0.087784,-1.507055,-1.317121,0.888186,-2.459924,0.314098,4.436387,34.057715,7.838503,-2.802868,-0.144552,0.167338,0.000000,-0.028467,0.346088,0.000000
2.440000,-1.305662,-0.334463,-1.328385,0.926286,0.602792,-0.078681,-1.529927,-1.313596,0.932404,-2.112097,0.390000,4.406507,35.496981,7.339066,-3.187285,-0.144798,0.170659,0.000000,-0.020751,0.310838,-0.000000
2.450000,-1.296476,-0.328501,-1.329125,0.910887,0.589677,-0.069137,-1.549250,-1.309338,0.976302,-1.750215,0.460826,4.372347,36.867141,6.823802,-3.660001,-0.144968,0.173614,0.000000,-0.013512,0.273533,-0.000000
2.460000,-1.287445,-0.322670,-1.329767,0.895314,0.576608,-0.059157,-1.564886,-1.304393,1.019850,-1.374886,0.526814,4.334483,38.156557,6.285622,-4.265909,-0.145069,0.176181,0.000000,-0.006736,0.234210,0.000000
2.470000,-1.278570,-0.316969,-1.330306,0.879602,0.563591,-0.048742,-1.576707,-1.298820,1.062970,-0.987226,0.586939,4.288387,39.360375,5.737952,-4.969826,-0.145105,0.178341,0.000000,-0.000463,0.192857,-0.000000
2.480000,-1.269853,-0.311398,-1.330740,0.863793,0.550633,-0.037899,-1.584592,-1.292672,1.105592,-0.587990,0.641554,4.234751,40.470544,5.184552,-5.774297,-0.145080,0.180073,0.000000,0.005336,0.149522,0.000000
2.490000,-1.261294,-0.305956,-1.331063,0.847924,0.537739,-0.026632,-1.588431,-1.286007,1.147636,-0.178154,0.690623,4.172557,41.479014,4.629181,-6.681865,-0.145000,0.181357,0.000000,0.010674,0.104246,-0.000000
2.500000,-1.252894,-0.300643,-1.331271,0.832038,0.524915,-0.014948,-1.588123,-1.278878,1.189012,0.241224,0.734144,4.100761,42.377734,4.075600,-7.695077,-0.144868,0.182174,0.000000,0.015572,0.057083,0.000000
2.510000,-1.244653,-0.295457,-1.331361,0.816176,0.512163,-0.002855,-1.583579,-1.271341,1.229638,0.668992,0.772265,4.020291,43.159047,3.524756,-8.866892,-0.144690,0.182505,0.000000,0.020034,0.008140,-0.000000
2.520000,-1.236571,-0.290399,-1.331327,0.800381,0.499489,0.009641,-1.574719,-1.263451,1.269377,1.103968,0.804797,3.925326,43.814461,2.983566,-10.143267,-0.144469,0.182332,0.000000,0.024139,-0.042606,-0.000000
2.530000,-1.228645,-0.285467,-1.331166,0.784696,0.486895,0.022529,-1.561480,-1.255263,1.308100,1.544835,0.831982,3.817089,44.335877,2.456134,-11.520571,-0.144208,0.181638,0.000000,0.027902,-0.095011,0.000000
2.540000,-1.220876,-0.280661,-1.330875,0.769166,0.474385,0.035799,-1.543808,-1.246829,1.345671,1.990212,0.853979,3.694590,44.715197,1.946565,-12.995176,-0.143912,0.180407,0.000000,0.031364,-0.148955,-0.000000
2.550000,-1.213261,-0.275979,-1.330449,0.753835,0.461959,0.049438,-1.521665,-1.238200,1.381941,2.438638,0.870987,3.556873,44.944322,1.458964,-14.563454,-0.143582,0.178623,0.000000,0.034573,-0.204299,0.000000
2.560000,-1.205799,-0.271421,-1.329885,0.738747,0.449621,0.063432,-1.495022,-1.229427,1.416779,2.889270,0.883076,3.405247,44.997486,1.001713,-16.278015,-0.143221,0.176274,0.000000,0.037523,-0.260909,0.000000
2.570000,-1.198486,-0.266986,-1.329179,0.723949,0.437371,0.077767,-1.463881,-1.220553,1.449988,3.338829,0.890929,3.233559,44.886421,0.574114,-18.072105,-0.142832,0.173348,0.000000,0.040410,-0.318509,-0.000000
2.580000,-1.191319,-0.262674,-1.328329,0.709485,0.425210,0.092426,-1.428252,-1.211622,1.481389,3.786431,0.894669,3.043575,44.605192,0.179748,-19.935208,-0.142413,0.169835,0.000000,0.043227,-0.376909,-0.000000
2.590000,-1.184295,-0.258482,-1.327330,0.695399,0.413139,0.107388,-1.388165,-1.202673,1.510796,4.230346,0.894646,2.834660,44.147864,-0.177804,-21.856808,-0.141967,0.165731,0.000000,0.046037,-0.435851,-0.000000
2.600000,-1.177409,-0.254411,-1.326180,0.681736,0.401157,0.122634,-1.343664,-1.193740,1.538017,4.668782,0.891247,2.606279,43.508503,-0.494962,-23.826390,-0.141492,0.161029,0.000000,0.048906,-0.495039,0.000000
2.610000,-1.170658,-0.250459,-1.324876,0.668539,0.389264,0.138140,-1.294790,-1.184862,1.562876,5.102039,0.884480,2.359958,42.626866,-0.757686,-25.882721,-0.140989,0.155728,0.000000,0.051814,-0.554362,0.000000
2.620000,-1.164037,-0.246625,-1.323416,0.655854,0.377459,0.153883,-1.241655,-1.176059,1.585147,5.523119,0.875781,2.090755,41.557974,-0.974135,-27.959969,-0.140455,0.149832,0.000000,0.055034,-0.612937,0.000000
2.630000,-1.157539,-0.242909,-1.321798,0.643720,0.365742,0.169834,-1.184366,-1.167353,1.604622,5.932577,0.865159,1.800744,40.302542,-1.142010,-30.041583,-0.139888,0.143350,0.000000,0.058531,-0.670609,0.000000
2.640000,-1.151160,-0.239310,-1.320019,0.632180,0.354112,0.185965,-1.123049,-1.158760,1.621093,6.328551,0.853110,1.489964,38.861284,-1.259009,-32.111015,-0.139284,0.136292,0.000000,0.062366,-0.726952,-0.000000
2.650000,-1.144894,-0.235827,-1.318078,0.621272,0.342567,0.202245,-1.057846,-1.150294,1.634353,6.709186,0.840156,1.158620,37.234915,-1.322833,-34.151714,-0.138639,0.128675,0.000000,0.066596,-0.781512,0.000000
2.660000,-1.138733,-0.232458,-1.315974,0.611035,0.331106,0.218641,-0.988898,-1.141967,1.644205,7.074882,0.826036,0.807750,35.367385,-1.310900,-36.164034,-0.137951,0.120516,0.000000,0.071162,-0.834076,0.000000
2.670000,-1.132671,-0.229204,-1.313705,0.601505,0.319727,0.235117,-0.916414,-1.133772,1.650442,7.418478,0.813217,0.436306,33.323124,-1.243676,-38.112451,-0.137214,0.111843,0.000000,0.076370,-0.883537,-0.000000
2.680000,-1.126700,-0.226063,-1.311271,0.592717,0.308430,0.251637,-0.840599,-1.125700,1.652868,7.740781,0.801346,0.045776,31.109796,-1.121344,-39.978347,-0.136422,0.102688,0.000000,0.082128,-0.929696,0.000000
2.690000,-1.120814,-0.223035,-1.308672,0.584704,0.297213,0.268161,-0.761675,-1.117740,1.651297,8.040136,0.790973,-0.362923,28.735066,-0.944087,-41.743101,-0.135570,0.093088,0.000000,0.088457,-0.972068,0.000000
2.700000,-1.115003,-0.220119,-1.305908,0.577493,0.286075,0.284649,-0.679878,-1.109873,1.645552,8.314970,0.782647,-0.788687,26.206601,-0.712090,-43.388093,-0.134651,0.083081,0.000000,0.095366,-1.010184,0.000000
2.710000,-1.109261,-0.217314,-1.302980,0.571114,0.275015,0.301058,-0.595434,-1.102088,1.635460,8.566428,0.776006,-1.231222,23.465216,-0.402623,-44.869504,-0.133662,0.072712,0.000000,0.102757,-1.043927,-0.000000
2.720000,-1.103578,-0.214618,-1.299888,0.565592,0.264033,0.317343,-0.508643,-1.094342,1.620881,8.786824,0.773743,-1.686689,20.593612,-0.041588,-46.197000,-0.132594,0.062032,0.000000,0.110842,-1.072114,0.000000
2.730000,-1.097946,-0.212033,-1.296633,0.560948,0.253129,0.333460,-0.419795,-1.086600,1.601684,8.977919,0.775336,-2.154597,17.607638,0.368026,-47.355047,-0.131443,0.051098,0.000000,0.119482,-1.094769,-0.000000
2.740000,-1.092356,-0.209556,-1.293219,0.557202,0.242301,0.349361,-0.329186,-1.078821,1.577754,9.138648,0.781256,-2.633173,14.523145,0.823229,-48.328111,-0.130203,0.039966,0.000000,0.128634,-1.111612,-0.000000
2.750000,-1.086799,-0.207186,-1.289647,0.554369,0.231552,0.364999,-0.237126,-1.070959,1.548992,9.268106,0.791943,-3.120491,11.355983,1.321032,-49.100658,-0.128869,0.028696,0.000000,0.138244,-1.122435,-0.000000
2.760000,-1.081266,-0.204924,-1.285920,0.552462,0.220883,0.380325,-0.143912,-1.062973,1.515292,9.367281,0.807016,-3.617181,8.078156,1.878467,-49.588587,-0.127437,0.017348,0.000000,0.148195,-1.127316,0.000000
2.770000,-1.075747,-0.202768,-1.282042,0.551493,0.210294,0.395289,-0.049891,-1.054800,1.476635,9.431475,0.828732,-4.114579,4.754732,2.470072,-49.853328,-0.125904,0.005987,0.000000,0.158541,-1.125707,-0.000000
2.780000,-1.070233,-0.200718,-1.278016,0.551466,0.199788,0.409842,0.044606,-1.046379,1.432995,9.462295,0.856513,-4.613480,1.406929,3.090406,-49.887742,-0.124265,-0.005325,0.000000,0.169146,-1.117904,-0.000000
2.790000,-1.064714,-0.198772,-1.273846,0.552385,0.189367,0.423933,0.139244,-1.037648,1.384369,9.459603,0.890618,-5.111543,-1.944032,3.734029,-49.684690,-0.122520,-0.016525,0.000000,0.179927,-1.104049,-0.000000
2.800000,-1.059182,-0.196930,-1.269539,0.554250,0.179036,0.437512,0.233687,-1.028545,1.330775,9.423474,0.931253,-5.606358,-5.276931,4.395501,-49.237035,-0.120667,-0.027553,0.000000,0.190804,-1.084366,0.000000
2.810000,-1.053626,-0.195191,-1.265098,0.557057,0.168798,0.450533,0.327602,-1.019005,1.272222,9.354125,0.978198,-6.099032,-8.568781,5.078763,-48.447021,-0.118704,-0.038352,0.000000,0.201699,-1.059129,-0.000000
2.820000,-1.048038,-0.193554,-1.260530,0.560800,0.158658,0.462942,0.420661,-1.008958,1.208825,9.252221,1.032429,-6.578518,-11.800345,5.767843,-47.409223,-0.116633,-0.048868,0.000000,0.212520,-1.028772,0.000000
2.830000,-1.042407,-0.192018,-1.255841,0.565467,0.148621,0.474693,0.512540,-0.998333,1.140690,9.118389,1.093552,-7.046404,-14.950622,6.456150,-46.127600,-0.114454,-0.059052,0.000000,0.223206,-0.993707,-0.000000
2.840000,-1.036725,-0.190581,-1.251039,0.571045,0.138693,0.485740,0.602925,-0.987064,1.067944,8.953549,1.161527,-7.500270,-17.998607,7.137096,-44.606109,-0.112169,-0.068859,0.000000,0.233690,-0.954417,0.000000
2.850000,-1.030983,-0.189244,-1.246129,0.577519,0.128882,0.496037,0.691511,-0.975080,0.990739,8.758828,1.236247,-7.937739,-20.923297,7.804089,-42.848708,-0.109781,-0.078249,0.000000,0.243915,-0.911419,0.000000
2.860000,-1.025172,-0.188003,-1.241120,0.584869,0.119194,0.505542,0.777984,-0.962315,0.909217,8.533493,1.317742,-8.359692,-23.651375,8.445452,-40.778021,-0.107291,-0.087185,0.000000,0.253888,-0.864993,-0.000000
2.870000,-1.019283,-0.186859,-1.236021,0.593072,0.109638,0.514209,0.862093,-0.948705,0.823618,8.283995,1.405295,-8.756204,-26.220558,9.060306,-38.489300,-0.104705,-0.095641,0.000000,0.263429,-0.816314,-0.000000
2.880000,-1.013308,-0.185810,-1.230839,0.602102,0.100223,0.522001,0.943581,-0.934189,0.734172,8.009660,1.498840,-9.128797,-28.616247,9.642686,-35.996461,-0.102024,-0.103594,0.000000,0.272573,-0.765632,-0.000000
2.890000,-1.007238,-0.184854,-1.225584,0.611934,0.090958,0.528881,1.022209,-0.918709,0.641128,7.712297,1.598021,-9.475499,-30.823846,10.186623,-33.313423,-0.099255,-0.111028,0.000000,0.281297,-0.713483,-0.000000
2.900000,-1.001067,-0.183990,-1.220265,0.622536,0.081852,0.534813,1.097757,-0.902211,0.544755,7.393859,1.702424,-9.794478,-32.828757,10.686152,-30.454102,-0.096400,-0.117931,0.000000,0.289583,-0.660378,-0.000000
2.910000,-0.994785,-0.183217,-1.214891,0.633879,0.072917,0.539766,1.169987,-0.884637,0.445317,7.053083,1.812274,-10.085903,-34.531448,11.117677,-27.385372,-0.093463,-0.124292,0.000000,0.297504,-0.606434,-0.000000
2.920000,-0.988387,-0.182531,-1.209473,0.645926,0.064163,0.543711,1.238765,-0.865952,0.343141,6.700177,1.925384,-10.343810,-36.012656,11.495018,-24.173955,-0.090451,-0.130114,0.000000,0.304845,-0.552999,-0.000000
2.930000,-0.981864,-0.181933,-1.204020,0.658642,0.055602,0.546621,1.303944,-0.846118,0.238550,6.333583,2.041981,-10.568972,-37.268185,11.814369,-20.839528,-0.087368,-0.135399,0.000000,0.311706,-0.500055,-0.000000
2.940000,-0.975212,-0.181419,-1.198544,0.671992,0.047245,0.548475,1.365399,-0.825103,0.131875,5.955579,2.161465,-10.760256,-38.293835,12.071919,-17.401770,-0.084219,-0.140156,0.000000,0.318090,-0.447968,0.000000
2.950000,-0.968423,-0.180987,-1.193054,0.685938,0.039104,0.549253,1.423026,-0.802881,0.023461,5.568486,2.283201,-10.916728,-39.085411,12.263862,-13.880359,-0.081008,-0.144394,0.000000,0.324001,-0.397067,0.000000
2.960000,-0.961491,-0.180636,-1.187562,0.700441,0.031191,0.548939,1.476708,-0.779423,-0.086342,5.171146,2.407482,-11.037768,-39.549817,12.361861,-10.291996,-0.077739,-0.148125,0.000000,0.329536,-0.347295,-0.000000
2.970000,-0.954412,-0.180363,-1.182079,0.715460,0.023519,0.547522,1.526437,-0.754729,-0.197174,4.774293,2.531299,-11.122555,-39.782638,12.389639,-6.659701,-0.074419,-0.151368,0.000000,0.334481,-0.299727,0.000000
2.980000,-0.947180,-0.180165,-1.176616,0.730956,0.016100,0.544994,1.572190,-0.728797,-0.308672,4.376242,2.655039,-11.170882,-39.790564,12.346393,-3.003514,-0.071051,-0.154143,0.000000,0.338952,-0.254165,-0.000000
2.990000,-0.939791,-0.180040,-1.171183,0.746890,0.008947,0.541348,1.613965,-0.701631,-0.420470,3.979209,2.777987,-11.182612,-39.580282,12.231317,0.656521,-0.067641,-0.156471,0.000000,0.342957,-0.210772,-0.000000
3.000000,-0.932241,-0.179985,-1.165793,0.763222,0.002072,0.536584,1.651785,-0.673243,-0.532202,3.585342,2.899423,-11.157806,-39.158481,12.043607,4.300363,-0.064194,-0.158375,0.000000,0.346505,-0.169675,-0.000000
3.010000,-0.924526,-0.179997,-1.160455,0.779914,-0.004514,0.530705,1.685661,-0.643640,-0.643490,3.194075,3.019590,-11.095359,-38.464996,11.757814,7.873459,-0.060712,-0.159877,0.000000,0.349686,-0.130749,-0.000000
3.020000,-0.916642,-0.180074,-1.155182,0.796924,-0.010797,0.523717,1.715692,-0.612861,-0.753991,2.813691,3.135442,-10.998970,-37.581553,11.400795,11.394503,-0.057201,-0.161004,0.000000,0.352314,-0.094596,-0.000000
3.030000,-0.908586,-0.180212,-1.149984,0.814215,-0.016767,0.515629,1.741967,-0.580944,-0.863353,2.443028,3.247376,-10.867695,-36.523028,10.974765,14.847679,-0.053667,-0.161781,0.000000,0.354487,-0.060997,-0.000000
3.040000,-0.900357,-0.180408,-1.144873,0.831751,-0.022413,0.506455,1.764591,-0.547929,-0.971231,2.083764,3.354714,-10.702295,-35.304295,10.481935,18.217169,-0.050113,-0.162234,0.000000,0.356215,-0.029962,-0.000000
3.050000,-0.891951,-0.180659,-1.139859,0.849495,-0.027722,0.496210,1.783686,-0.513867,-1.077289,1.737427,3.456800,-10.503684,-33.940227,9.924520,21.487158,-0.046544,-0.162389,0.000000,0.357503,-0.001482,0.000000
3.060000,-0.883366,-0.180962,-1.134952,0.867414,-0.032687,0.484915,1.799374,-0.478805,-1.181175,1.404224,3.553751,-10.270790,-32.416132,9.285692,24.587612,-0.042964,-0.162271,0.000000,0.358417,0.024541,0.000000
3.070000,-0.874602,-0.181312,-1.130164,0.885472,-0.037296,0.472594,1.811823,-0.442814,-1.282603,1.088157,3.643171,-10.009926,-30.780071,8.589037,27.563571,-0.039377,-0.161906,0.000000,0.358824,0.047978,-0.000000
3.080000,-0.865656,-0.181706,-1.125504,0.903640,-0.041540,0.459273,1.821194,-0.405965,-1.381276,0.788934,3.725354,-9.719964,-29.050540,7.839099,30.405856,-0.035789,-0.161319,0.000000,0.358793,0.068972,0.000000
3.090000,-0.856529,-0.182141,-1.120982,0.921886,-0.045412,0.444979,1.827660,-0.368333,-1.476910,0.507396,3.799790,-9.402285,-27.246033,7.040423,33.105290,-0.032203,-0.160534,0.000000,0.358332,0.087592,0.000000
3.100000,-0.847219,-0.182613,-1.116607,0.940184,-0.048905,0.429745,1.831403,-0.329997,-1.569234,0.244202,3.866015,-9.058365,-25.385044,6.197553,35.652696,-0.028624,-0.159574,0.000000,0.357446,0.103921,-0.000000
3.110000,-0.837725,-0.183118,-1.112390,0.958506,-0.052010,0.413606,1.832611,-0.291037,-1.657972,0.000204,3.924019,-8.687635,-23.495728,5.304694,37.984993,-0.025055,-0.158463,0.000000,0.356173,0.117991,0.000000
3.120000,-0.828048,-0.183652,-1.108338,0.976828,-0.054724,0.396598,1.831470,-0.251547,-1.742912,-0.225213,3.972458,-8.296805,-21.585736,4.377998,40.153506,-0.021502,-0.157221,0.000000,0.354445,0.130044,0.000000
3.130000,-0.818189,-0.184211,-1.104461,0.995128,-0.057040,0.378761,1.828171,-0.211619,-1.823838,-0.431499,4.011485,-7.885119,-19.672382,3.423275,42.155658,-0.017968,-0.155868,0.000000,0.352302,0.140114,-0.000000
3.140000,-0.808146,-0.184792,-1.100766,1.013385,-0.058955,0.360135,1.822904,-0.171349,-1.900550,-0.618707,4.040849,-7.454254,-17.772976,2.446336,43.988871,-0.014457,-0.154424,0.000000,0.349751,0.148310,-0.000000
3.150000,-0.797921,-0.185389,-1.097261,1.031580,-0.060466,0.340764,1.815860,-0.130835,-1.972865,-0.787063,4.060357,-7.005913,-15.904832,1.452991,45.650568,-0.010974,-0.152907,0.000000,0.346799,0.154744,0.000000
3.160000,-0.787515,-0.186000,-1.093953,1.049696,-0.061571,0.320693,1.807241,-0.090175,-2.040599,-0.935397,4.069919,-6.540267,-14.124875,0.447919,47.098861,-0.007522,-0.151336,0.000000,0.343460,0.159386,-0.000000
3.170000,-0.776928,-0.186619,-1.090849,1.067720,-0.062269,0.299968,1.797210,-0.049470,-2.103625,-1.067995,4.069351,-6.062754,-12.405952,-0.561798,48.375296,-0.004106,-0.149724,0.000000,0.339733,0.162709,0.000000
3.180000,-0.766161,-0.187244,-1.087955,1.085636,-0.062561,0.278636,1.785937,-0.008822,-2.161815,-1.183761,4.058687,-5.573327,-10.760525,-1.570210,49.482109,-0.000729,-0.148086,0.000000,0.335631,0.164663,-0.000000
3.190000,-0.755215,-0.187869,-1.085278,1.103435,-0.062446,0.256748,1.773588,0.031670,-2.215058,-1.283492,4.037971,-5.073670,-9.201056,-2.571367,50.421537,0.002605,-0.146435,0.000000,0.331164,0.165367,0.000000
3.200000,-0.744092,-0.188491,-1.082822,1.121105,-0.061928,0.234352,1.760318,0.071904,-2.263260,-1.368110,4.007304,-4.565446,-7.740005,-3.559319,51.195815,0.005893,-0.144783,0.000000,0.326345,0.164943,0.000000
3.210000,-0.732794,-0.189106,-1.080593,1.138638,-0.061009,0.211499,1.746297,0.111780,-2.306335,-1.436479,3.966587,-4.049510,-6.444962,-4.521517,51.787326,0.009131,-0.143142,0.000000,0.321163,0.163328,-0.000000
3.220000,-0.721320,-0.189710,-1.078593,1.156028,-0.059694,0.188242,1.731630,0.151204,-2.344233,-1.494937,3.916660,-3.529341,-5.266511,-5.459420,52.220591,0.012315,-0.141519,0.000000,0.315683,0.161086,0.000000
3.230000,-0.709673,-0.190299,-1.076829,1.173269,-0.057987,0.164632,1.716435,0.190083,-2.376910,-1.542217,3.857497,-3.005611,-4.210362,-6.367884,52.500276,0.015444,-0.139922,0.000000,0.309895,0.158127,0.000000
3.240000,-0.697855,-0.190869,-1.075302,1.190355,-0.055895,0.140721,1.700818,0.228325,-2.404338,-1.579571,3.789417,-2.479832,-3.282226,-7.241770,52.631050,0.018512,-0.138358,0.000000,0.303814,0.154568,0.000000
3.250000,-0.685867,-0.191415,-1.074015,1.207284,-0.053423,0.116563,1.684872,0.265843,-2.426504,-1.608308,3.712794,-1.953470,-2.487816,-8.075935,52.617578,0.021519,-0.136832,0.000000,0.297456,0.150527,0.000000
3.260000,-0.673710,-0.191936,-1.072971,1.224051,-0.050580,0.092209,1.668701,0.302548,-2.443409,-1.627561,3.627571,-1.427792,-1.889199,-8.853189,52.460652,0.024460,-0.135350,0.000000,0.290800,0.145942,0.000000
3.270000,-0.661386,-0.192426,-1.072172,1.240657,-0.047375,0.067712,1.652339,0.338369,-2.455068,-1.644036,3.535354,-0.904532,-1.428828,-9.581914,52.169290,0.027334,-0.133913,0.000000,0.283957,0.141358,0.000000
3.280000,-0.648897,-0.192882,-1.071617,1.257098,-0.043816,0.043125,1.635833,0.373232,-2.461511,-1.656594,3.436107,-0.384837,-1.105513,-10.258445,51.748633,0.030139,-0.132522,0.000000,0.276904,0.136684,-0.000000
3.290000,-0.636245,-0.193301,-1.071309,1.273373,-0.039914,0.018499,1.619215,0.407069,-2.462781,-1.666600,3.330371,0.130026,-0.918066,-10.879116,51.203824,0.032872,-0.131178,0.000000,0.269661,0.132028,-0.000000
3.300000,-0.623431,-0.193679,-1.071247,1.289482,-0.035678,-0.006114,1.602505,0.439820,-2.458931,-1.675405,3.218723,0.638843,-0.865295,-11.440259,50.540003,0.035531,-0.129880,0.000000,0.262250,0.127499,0.000000
3.310000,-0.610456,-0.194014,-1.071431,1.305422,-0.031121,-0.030663,1.585727,0.471420,-2.450030,-1.682508,3.101168,1.140279,-0.992555,-11.922850,49.766542,0.038116,-0.128627,0.000000,0.254644,0.123056,-0.000000
3.320000,-0.597323,-0.194301,-1.071860,1.321195,-0.026254,-0.055098,1.568848,0.501828,-2.436153,-1.693600,2.979797,1.633620,-1.246413,-12.340463,48.883836,0.040624,-0.127415,0.000000,0.246988,0.119151,-0.000000
3.330000,-0.584033,-0.194538,-1.072533,1.336799,-0.021088,-0.079369,1.551844,0.531003,-2.417388,-1.707835,2.854582,2.117607,-1.619980,-12.691312,47.896508,0.043055,-0.126241,0.000000,0.239251,0.115720,0.000000
3.340000,-0.570587,-0.194721,-1.073447,1.352232,-0.015638,-0.103429,1.534677,0.558909,-2.393835,-1.726376,2.726199,2.591217,-2.106367,-12.973611,46.809182,0.045409,-0.125097,0.000000,0.231459,0.112858,-0.000000
3.350000,-0.556989,-0.194849,-1.074600,1.367492,-0.009915,-0.127230,1.517299,0.585519,-2.365602,-1.750315,2.595344,3.053473,-2.698686,-13.185576,45.626482,0.047684,-0.123979,0.000000,0.223640,0.110657,-0.000000
3.360000,-0.543238,-0.194919,-1.075990,1.382576,-0.003932,-0.150726,1.499663,0.610803,-2.332809,-1.779485,2.462059,3.503267,-3.420221,-13.308521,44.357516,0.049881,-0.122880,0.000000,0.215768,0.109113,-0.000000
3.370000,-0.529338,-0.194927,-1.077614,1.397483,0.002297,-0.173872,1.481684,0.634757,-2.295580,-1.817668,2.328658,3.940134,-4.230215,-13.359630,43.001875,0.052000,-0.121791,0.000000,0.208007,0.108538,0.000000
3.380000,-0.515289,-0.194872,-1.079467,1.412209,0.008759,-0.196623,1.463281,0.657375,-2.254053,-1.864349,2.195105,4.363029,-5.118083,-13.339187,41.563633,0.054041,-0.120703,0.000000,0.200323,0.108908,-0.000000
3.390000,-0.501094,-0.194751,-1.081545,1.426747,0.015440,-0.218939,1.444366,0.678661,-2.208369,-1.920254,2.062112,4.771145,-6.073243,-13.247475,40.046865,0.056007,-0.119606,0.000000,0.192750,0.110298,0.000000
3.400000,-0.486755,-0.194563,-1.083844,1.441094,0.022328,-0.240777,1.424843,0.698622,-2.158682,-1.986003,1.930392,5.163718,-7.085111,-13.084778,38.455645,0.057897,-0.118490,0.000000,0.185320,0.112782,-0.000000
3.410000,-0.472273,-0.194304,-1.086359,1.455242,0.029409,-0.262100,1.404616,0.717268,-2.105149,-2.061670,1.799983,5.540024,-8.154209,-12.834475,36.794029,0.059713,-0.117343,0.000000,0.178010,0.116390,-0.000000
3.420000,-0.457651,-0.193974,-1.089084,1.469183,0.036669,-0.282868,1.383573,0.734631,-2.047938,-2.148705,1.673176,5.899379,-9.257488,-12.515826,35.066113,0.061458,-0.116154,0.000000,0.170990,0.121272,-0.000000
3.430000,-0.442890,-0.193570,-1.092014,1.482910,0.044097,-0.303047,1.361605,0.750743,-1.987220,-2.246894,1.549886,6.241139,-10.383003,-12.131183,33.275976,0.063134,-0.114909,0.000000,0.164231,0.127444,-0.000000
3.440000,-0.427993,-0.193091,-1.095143,1.496412,0.051680,-0.322601,1.338598,0.765643,-1.923175,-2.356399,1.430764,6.564704,-11.518810,-11.682901,31.427693,0.064743,-0.113595,0.000000,0.157768,0.134957,-0.000000
3.450000,-0.412962,-0.192536,-1.098464,1.509678,0.059406,-0.341500,1.314439,0.779374,-1.855988,-2.477264,1.316433,6.869513,-12.652967,-11.173333,29.525342,0.066290,-0.112200,0.000000,0.151636,0.143855,-0.000000
3.460000,-0.397800,-0.191903,-1.101970,1.522697,0.067264,-0.359711,1.289012,0.791983,-1.785847,-2.609718,1.206886,7.155249,-13.765840,-10.589482,27.567845,0.067777,-0.110707,0.000000,0.145822,0.154199,-0.000000
3.470000,-0.382509,-0.191190,-1.105656,1.535454,0.075242,-0.377208,1.262208,0.803533,-1.712950,-2.752843,1.104140,7.420949,-14.854116,-9.950934,25.565066,0.069208,-0.109104,0.000000,0.140482,0.165962,-0.000000
3.480000,-0.367092,-0.190398,-1.109512,1.547936,0.083331,-0.393962,1.233919,0.814088,-1.637496,-2.906681,1.008035,7.666415,-15.906793,-9.261922,23.521713,0.070588,-0.107375,0.000000,0.135593,0.179193,-0.000000
3.490000,-0.351552,-0.189524,-1.113532,1.560127,0.091521,-0.409950,1.204040,0.823717,-1.559690,-3.070823,0.919056,7.891264,-16.912868,-8.526680,21.442494,0.071921,-0.105506,0.000000,0.131191,0.193905,-0.000000
3.500000,-0.335891,-0.188567,-1.117708,1.572011,0.099803,-0.425149,1.172470,0.832494,-1.479740,-3.244747,0.837642,8.095161,-17.861340,-7.749441,19.332119,0.073213,-0.103482,0.000000,0.127309,0.210104,-0.000000
3.510000,-0.320112,-0.187527,-1.122033,1.583571,0.108168,-0.439538,1.139104,0.840491,-1.397854,-3.428762,0.763712,8.278118,-18.717433,-6.922299,17.187726,0.074469,-0.101287,0.000000,0.123939,0.227864,-0.000000
3.520000,-0.304220,-0.186403,-1.126496,1.594787,0.116610,-0.453100,1.103867,0.847796,-1.314250,-3.619901,0.698761,8.439184,-19.496830,-6.063115,15.022520,0.075694,-0.098907,0.000000,0.121208,0.246979,0.000000
3.530000,-0.288218,-0.185195,-1.131092,1.605642,0.125122,-0.465818,1.066682,0.854496,-1.229143,-3.818416,0.642537,8.578517,-20.191438,-5.177610,12.842135,0.076895,-0.096328,0.000000,0.119099,0.267511,0.000000
3.540000,-0.272109,-0.183901,-1.135810,1.616114,0.133699,-0.477679,1.027477,0.860677,-1.142752,-4.023420,0.595277,8.695995,-20.793167,-4.271504,10.652208,0.078078,-0.093536,0.000000,0.117640,0.289423,-0.000000
3.550000,-0.255897,-0.182521,-1.140642,1.626184,0.142334,-0.488670,0.986195,0.866432,-1.055296,-4.233943,0.557157,8.791548,-21.293925,-3.350517,8.458374,0.079250,-0.090518,0.000000,0.116852,0.312665,-0.000000
3.560000,-0.239587,-0.181054,-1.145580,1.635831,0.151026,-0.498782,0.942769,0.871846,-0.966992,-4.450288,0.527866,8.865403,-21.651446,-2.409464,6.260320,0.080417,-0.087258,0.000000,0.116718,0.337297,-0.000000
3.570000,-0.223182,-0.179500,-1.150615,1.645033,0.159771,-0.508008,0.897179,0.877020,-0.878061,-4.668121,0.508488,8.917047,-21.895999,-1.466308,4.070358,0.081587,-0.083746,0.000000,0.117343,0.362950,0.000000
3.580000,-0.206687,-0.177858,-1.155738,1.653768,0.168566,-0.516342,0.849400,0.882048,-0.788724,-4.887819,0.498523,8.946859,-22.023677,-0.528103,1.894850,0.082767,-0.079971,0.000000,0.118695,0.389669,0.000000
3.590000,-0.190108,-0.176128,-1.160939,1.662014,0.177411,-0.523781,0.799420,0.887022,-0.699196,-5.108192,0.497886,8.955014,-22.030575,0.398094,-0.259839,0.083963,-0.075922,0.000000,0.120780,0.417351,0.000000
3.600000,-0.173449,-0.174310,-1.166210,1.669749,0.186307,-0.530326,0.747238,0.892036,-0.609695,-5.328015,0.506421,8.941753,-21.912785,1.305227,-2.387347,0.085185,-0.071591,0.000000,0.123596,0.445875,0.000000
3.610000,-0.156715,-0.172402,-1.171543,1.676951,0.195252,-0.535976,0.692847,0.897186,-0.520432,-5.547748,0.524452,8.907341,-21.622729,2.172373,-4.480361,0.086438,-0.066968,0.000000,0.127188,0.475273,-0.000000
3.620000,-0.139912,-0.170405,-1.176927,1.683599,0.204251,-0.540736,0.636295,0.902553,-0.431617,-5.761995,0.550383,8.852236,-21.205520,3.008042,-6.533583,0.087731,-0.062049,0.000000,0.131414,0.504999,0.000000
3.630000,-0.123045,-0.168317,-1.182354,1.689670,0.213305,-0.544611,0.577623,0.908221,-0.343455,-5.971440,0.584490,8.776823,-20.662601,3.806875,-8.540764,0.089069,-0.056828,0.000000,0.136312,0.535075,0.000000
3.640000,-0.106120,-0.166138,-1.187816,1.695145,0.222417,-0.547608,0.516887,0.914269,-0.256147,-6.174833,0.626380,8.681595,-19.995412,4.563516,-10.495658,0.090459,-0.051304,0.000000,0.141852,0.565322,0.000000
3.650000,-0.089144,-0.163868,-1.193304,1.700001,0.231591,-0.549737,0.454151,0.920773,-0.169887,-6.370939,0.675602,8.567105,-19.205395,5.272606,-12.392016,0.091908,-0.045475,0.000000,0.147998,0.595550,-0.000000
3.660000,-0.072122,-0.161506,-1.198808,1.704222,0.240834,-0.551010,0.389484,0.927802,-0.084870,-6.559694,0.731462,8.433710,-18.264738,5.933667,-14.217004,0.093421,-0.039342,0.000000,0.154684,0.625675,-0.000000
3.670000,-0.055062,-0.159051,-1.204321,1.707785,0.250150,-0.551439,0.322991,0.935423,-0.001273,-6.737151,0.793861,8.282705,-17.207718,6.535864,-15.971768,0.095003,-0.032908,0.000000,0.161908,0.655202,-0.000000
3.680000,-0.037969,-0.156503,-1.209834,1.710676,0.259545,-0.551040,0.254778,0.943698,0.080727,-6.903477,0.861963,8.114526,-16.039358,7.073242,-17.650868,0.096660,-0.026181,0.000000,0.169585,0.684038,-0.000000
3.690000,-0.020851,-0.153860,-1.215339,1.712876,0.269026,-0.549830,0.184962,0.952679,0.160963,-7.057584,0.935090,7.929958,-14.764681,7.539845,-19.248861,0.098396,-0.019167,0.000000,0.177643,0.711952,-0.000000
3.700000,-0.003714,-0.151122,-1.220828,1.714370,0.278601,-0.547828,0.113670,0.962414,0.239275,-7.198433,1.012505,7.729838,-13.388712,7.929719,-20.760307,0.100214,-0.011876,0.000000,0.186001,0.738708,0.000000
3.710000,0.013434,-0.148288,-1.226293,1.715145,0.288276,-0.545052,0.041029,0.972960,0.315503,-7.326137,1.095160,7.514352,-11.888692,8.192684,-22.161921,0.102119,-0.004321,0.000000,0.194744,0.764183,0.000000
3.720000,0.030587,-0.145356,-1.231727,1.715187,0.298062,-0.541525,-0.032801,0.984325,0.389516,-7.437155,1.178055,7.286120,-10.300827,8.372424,-23.468292,0.104109,0.003482,0.000000,0.203357,0.787861,-0.000000
3.730000,0.047736,-0.142326,-1.237121,1.714485,0.307966,-0.537269,-0.107660,0.996526,0.461184,-7.531889,1.262329,7.045314,-8.633542,8.468399,-24.676162,0.106186,0.011515,0.000000,0.211934,0.809636,-0.000000
3.740000,0.064874,-0.139197,-1.242470,1.713031,0.317995,-0.532309,-0.183382,1.009573,0.530384,-7.609589,1.347142,6.792936,-6.895263,8.480068,-25.782275,0.108347,0.019759,0.000000,0.220369,0.829282,-0.000000
3.750000,0.081994,-0.135966,-1.247765,1.710815,0.328160,-0.526670,-0.259793,1.023468,0.597007,-7.669586,1.431648,6.530019,-5.094414,8.406892,-26.783377,0.110592,0.028191,0.000000,0.228554,0.846581,-0.000000
3.760000,0.099088,-0.132633,-1.253001,1.707833,0.338467,-0.520378,-0.336720,1.038220,0.660943,-7.711935,1.516623,6.256684,-3.223302,8.207230,-27.652334,0.112919,0.036787,0.000000,0.236547,0.861395,-0.000000
3.770000,0.116148,-0.129196,-1.258170,1.704080,0.348926,-0.513460,-0.413969,1.053792,0.722114,-7.734626,1.597358,5.976268,-1.308444,7.926675,-28.412690,0.115322,0.045520,0.000000,0.243849,0.873383,-0.000000
3.780000,0.133167,-0.125654,-1.263268,1.699554,0.359545,-0.505945,-0.491348,1.070156,0.780445,-7.737992,1.674901,5.688793,0.639761,7.569719,-29.064113,0.117794,0.054362,0.000000,0.250544,0.882456,0.000000
3.790000,0.150136,-0.122005,-1.268287,1.694253,0.370332,-0.497861,-0.568663,1.087277,0.835870,-7.721754,1.748512,5.395350,2.610916,7.140856,-29.606270,0.120330,0.063282,0.000000,0.256537,0.888478,0.000000
3.800000,0.167049,-0.118247,-1.273223,1.688181,0.381293,-0.489237,-0.645717,1.105111,0.888335,-7.685732,1.817494,5.097033,4.594623,6.644576,-30.038829,0.122922,0.072250,0.000000,0.261742,0.891336,0.000000
3.810000,0.183897,-0.114378,-1.278071,1.681341,0.392437,-0.480104,-0.722309,1.123607,0.937788,-7.629622,1.881014,4.794032,6.574610,6.089935,-30.338530,0.125562,0.081233,0.000000,0.266051,0.890915,0.000000
3.820000,0.200673,-0.110397,-1.282824,1.673737,0.403768,-0.470491,-0.798244,1.142712,0.984208,-7.554003,1.938892,4.489597,8.547071,5.476305,-30.530776,0.128240,0.090199,0.000000,0.269472,0.887245,0.000000
3.830000,0.217370,-0.106302,-1.287479,1.665379,0.415293,-0.460430,-0.873324,1.162364,1.027575,-7.458738,1.990356,4.183767,10.502325,4.807620,-30.618040,0.130948,0.099114,0.000000,0.271913,0.880270,-0.000000
3.840000,0.233979,-0.102091,-1.292031,1.656274,0.427017,-0.449950,-0.947354,1.182496,1.067882,-7.344046,2.034874,3.877578,12.430692,4.087815,-30.602798,0.133675,0.107945,0.000000,0.273324,0.870002,-0.000000
3.850000,0.250493,-0.097761,-1.296477,1.646436,0.438944,-0.439082,-1.020141,1.203036,1.105129,-7.210246,2.071955,3.572044,14.322493,3.320823,-30.487525,0.136411,0.116660,0.000000,0.273668,0.856486,-0.000000
3.860000,0.266905,-0.093311,-1.300812,1.635876,0.451078,-0.427857,-1.091492,1.223917,1.139319,-7.057356,2.101946,3.267280,16.158072,2.490379,-30.252650,0.139146,0.125224,0.000000,0.272992,0.839736,0.000000
3.870000,0.283208,-0.088739,-1.305033,1.624611,0.463423,-0.416306,-1.161228,1.245047,1.170484,-6.886821,2.122542,2.966315,17.938947,1.623090,-29.925393,0.141867,0.133608,0.000000,0.271096,0.819993,0.000000
3.880000,0.299395,-0.084042,-1.309137,1.612657,0.475980,-0.404458,-1.229170,1.266339,1.198657,-6.698787,2.134307,2.669063,19.656660,0.725363,-29.510928,0.144564,0.141781,0.000000,0.268059,0.797323,-0.000000
3.890000,0.315459,-0.079219,-1.313121,1.600034,0.488750,-0.392343,-1.295147,1.287703,1.223881,-6.493927,2.136969,2.376370,21.302752,-0.196394,-29.014430,0.147224,0.149713,0.000000,0.263888,0.771880,-0.000000
3.900000,0.331393,-0.074266,-1.316983,1.586762,0.501734,-0.379990,-1.358995,1.309047,1.246203,-6.272999,2.130320,2.089031,22.868767,-1.135775,-28.441071,0.149838,0.157378,0.000000,0.258595,0.743840,0.000000
3.910000,0.347192,-0.069183,-1.320720,1.572862,0.514930,-0.367428,-1.420545,1.330275,1.265676,-6.035754,2.113928,1.807306,24.318645,-2.079099,-27.783864,0.152392,0.164749,0.000000,0.252169,0.713262,0.000000
3.920000,0.362849,-0.063967,-1.324331,1.558358,0.528338,-0.354685,-1.479663,1.351294,1.282372,-5.785706,2.088394,1.533027,25.674909,-3.028122,-27.061636,0.154878,0.171803,0.000000,0.244731,0.680672,0.000000
3.930000,0.378357,-0.058616,-1.327813,1.543277,0.541955,-0.341789,-1.536215,1.372011,1.296362,-5.522585,2.053365,1.266268,26.932479,-3.977327,-26.281049,0.157283,0.178521,0.000000,0.236276,0.646137,-0.000000
3.940000,0.393712,-0.053127,-1.331166,1.527643,0.555777,-0.328767,-1.590075,1.392330,1.307724,-5.247402,2.008866,1.007578,28.086279,-4.921198,-25.448768,0.159600,0.184882,0.000000,0.226849,0.609883,0.000000
3.950000,0.408908,-0.047499,-1.334388,1.511485,0.569800,-0.315643,-1.641126,1.412157,1.316542,-4.961222,1.954977,0.757443,29.131228,-5.854218,-24.571457,0.161817,0.190870,0.000000,0.216498,0.572138,-0.000000
3.960000,0.423940,-0.041731,-1.337479,1.494830,0.584019,-0.302444,-1.689252,1.431393,1.322903,-4.663858,1.891373,0.516281,30.029419,-6.759180,-23.655871,0.163926,0.196470,0.000000,0.205227,0.532987,0.000000
3.970000,0.438803,-0.035818,-1.340437,1.477709,0.598426,-0.289193,-1.734376,1.449954,1.326899,-4.359551,1.819340,0.284435,30.812623,-7.643689,-22.708570,0.165919,0.201671,0.000000,0.193203,0.493006,-0.000000
3.980000,0.453493,-0.029761,-1.343262,1.460153,0.613015,-0.275914,-1.776419,1.467751,1.328624,-4.047992,1.738581,0.062193,31.479783,-8.503659,-21.736207,0.167788,0.206465,0.000000,0.180427,0.452252,-0.000000
3.990000,0.468005,-0.023558,-1.345955,1.442191,0.627778,-0.262628,-1.815315,1.484698,1.328175,-3.730346,1.649362,-0.150228,32.029839,-9.335005,-20.745433,0.169525,0.210843,0.000000,0.166955,0.410940,0.000000
4.000000,0.482336,-0.017205,-1.348515,1.423857,0.642706,-0.249357,-1.851009,1.500711,1.325652,-3.407789,1.551990,-0.352677,32.461733,-10.133641,-19.742902,0.171125,0.214802,0.000000,0.152843,0.369277,0.000000
4.010000,0.496481,-0.010703,-1.350942,1.405182,0.657789,-0.236122,-1.883446,1.515705,1.321161,-3.080363,1.446212,-0.544569,32.745472,-10.880341,-18.747884,0.172580,0.218336,0.000000,0.138092,0.327345,-0.000000
4.020000,0.510438,-0.004049,-1.353238,1.386199,0.673017,-0.222940,-1.912609,1.529611,1.314794,-2.751977,1.333837,-0.727071,32.912475,-11.588014,-17.752869,0.173885,0.221448,0.000000,0.122883,0.285605,-0.000000
4.030000,0.524204,0.002758,-1.355401,1.366940,0.688378,-0.209832,-1.938482,1.542359,1.306652,-2.422494,1.214590,-0.899644,32.965228,-12.254430,-16.762962,0.175036,0.224137,0.000000,0.107207,0.244099,-0.000000
4.040000,0.537776,0.009719,-1.357435,1.347440,0.703860,-0.196813,-1.961059,1.553882,1.296834,-2.093045,1.088894,-1.062364,32.906215,-12.877356,-15.783271,0.176028,0.226407,0.000000,0.091116,0.202987,0.000000
4.050000,0.551152,0.016835,-1.359338,1.327730,0.719451,-0.183900,-1.980347,1.564117,1.285437,-1.764734,0.957195,-1.215360,32.737922,-13.454561,-14.818904,0.176857,0.228262,0.000000,0.074658,0.162419,0.000000
4.060000,0.564330,0.024108,-1.361113,1.307844,0.735138,-0.171109,-1.996353,1.573001,1.272567,-1.437889,0.819405,-1.358032,32.443807,-13.969736,-13.894626,0.177519,0.229708,0.000000,0.057837,0.122467,-0.000000
4.070000,0.577309,0.031538,-1.362761,1.287814,0.750907,-0.158454,-2.009116,1.580489,1.258307,-1.115349,0.677333,-1.492452,32.047710,-14.436452,-12.993479,0.178013,0.230753,0.000000,0.040803,0.083406,0.000000
4.080000,0.590086,0.039127,-1.364283,1.267672,0.766743,-0.145948,-2.018675,1.586533,1.242748,-0.797259,0.530839,-1.617988,31.554446,-14.854200,-12.118162,0.178335,0.231406,0.000000,0.023549,0.045275,-0.000000
4.090000,0.602662,0.046873,-1.365680,1.247451,0.782632,-0.133603,-2.025079,1.591092,1.225976,-0.484568,0.380414,-1.734910,30.968830,-15.222473,-11.271376,0.178483,0.231677,0.000000,0.006119,0.008176,-0.000000
4.100000,0.615035,0.054779,-1.366955,1.227181,0.798560,-0.121432,-2.028387,1.594130,1.208077,-0.178174,0.226556,-1.843519,30.295674,-15.540763,-10.455821,0.178457,0.231576,0.000000,-0.011448,-0.027804,0.000000
4.110000,0.627205,0.062845,-1.368109,1.206893,0.814510,-0.109445,-2.028663,1.595609,1.189141,0.121413,0.069345,-1.943377,29.531121,-15.797898,-9.693469,0.178254,0.231115,0.000000,-0.029142,-0.062601,0.000000
4.120000,0.639173,0.071070,-1.369145,1.186617,0.830467,-0.097652,-2.025986,1.595509,1.169235,0.412579,-0.089712,-2.036643,28.689720,-16.005340,-8.965387,0.177874,0.230308,0.000000,-0.046851,-0.096104,0.000000
4.130000,0.650938,0.079454,-1.370063,1.166383,0.846415,-0.086063,-2.020440,1.593809,1.148432,0.694971,-0.250599,-2.122800,27.777347,-16.163889,-8.271916,0.177316,0.229167,0.000000,-0.064573,-0.128271,0.000000
4.140000,0.662501,0.087998,-1.370867,1.146218,0.862337,-0.074687,-2.012118,1.590492,1.126801,0.967909,-0.412830,-2.202197,26.799881,-16.274342,-7.613397,0.176582,0.227706,0.000000,-0.082272,-0.159051,-0.000000
4.150000,0.673862,0.096701,-1.371558,1.126149,0.878219,-0.063530,-2.001116,1.585549,1.104409,1.230772,-0.575928,-2.275186,25.763196,-16.337497,-6.990169,0.175671,0.225941,0.000000,-0.099909,-0.188397,0.000000
4.160000,0.685024,0.105562,-1.372138,1.106204,0.894043,-0.052601,-1.987538,1.578970,1.081323,1.483004,-0.739693,-2.341578,24.672942,-16.347374,-6.416251,0.174584,0.223885,0.000000,-0.117470,-0.216260,0.000000
4.170000,0.695987,0.114581,-1.372610,1.086407,0.909793,-0.041906,-1.971493,1.570756,1.057596,1.724082,-0.903029,-2.403014,23.535252,-16.312380,-5.876631,0.173322,0.221554,0.000000,-0.134873,-0.242639,0.000000
4.180000,0.706753,0.123758,-1.372977,1.066782,0.925453,-0.031451,-1.953095,1.560911,1.033281,1.953571,-1.065797,-2.459221,22.356028,-16.234144,-5.369973,0.171887,0.218963,0.000000,-0.152105,-0.267493,0.000000
4.190000,0.717323,0.133090,-1.373240,1.047352,0.941006,-0.021242,-1.932461,1.549443,1.008428,2.171084,-1.227573,-2.510519,21.141177,-16.114295,-4.894943,0.170281,0.216129,0.000000,-0.169132,-0.290804,-0.000000
4.200000,0.727701,0.142577,-1.373403,1.028140,0.956436,-0.011284,-1.909714,1.536364,0.983086,2.376295,-1.387949,-2.557220,19.896602,-15.954459,-4.450206,0.168505,0.213067,0.000000,-0.185920,-0.312558,-0.000000
4.210000,0.737887,0.152218,-1.373467,1.009165,0.971728,-0.001582,-1.884980,1.521689,0.957300,2.568724,-1.546659,-2.599378,18.633576,-15.753121,-4.040532,0.166563,0.209794,0.000000,-0.202445,-0.332718,-0.000000
4.220000,0.747885,0.162011,-1.373435,0.990447,0.986865,0.007861,-1.858382,1.505438,0.931111,2.748665,-1.703031,-2.637848,17.351977,-15.515439,-3.657734,0.164458,0.206325,0.000000,-0.218650,-0.351348,0.000000
4.230000,0.757697,0.171955,-1.373310,0.972003,1.001831,0.017039,-1.830049,1.487637,0.904556,2.915719,-1.856853,-2.672616,16.057053,-15.243427,-3.299731,0.162191,0.202676,0.000000,-0.234515,-0.368416,-0.000000
4.240000,0.767326,0.182047,-1.373095,0.953851,1.016612,0.025951,-1.800111,1.468311,0.877670,3.069780,-2.007792,-2.703918,14.754052,-14.939099,-2.964442,0.159768,0.198864,0.000000,-0.250007,-0.383929,0.000000
4.250000,0.776775,0.192287,-1.372792,0.936006,1.031193,0.034592,-1.768697,1.447491,0.850488,3.210791,-2.155534,-2.731973,13.448220,-14.604468,-2.649783,0.157193,0.194904,0.000000,-0.265096,-0.397895,0.000000
4.260000,0.786047,0.202670,-1.372404,0.918482,1.045557,0.042960,-1.735942,1.425212,0.823041,3.338403,-2.299802,-2.757004,12.153615,-14.241152,-2.352975,0.154468,0.190812,0.000000,-0.279756,-0.410293,-0.000000
4.270000,0.795146,0.213197,-1.371934,0.901291,1.059692,0.051052,-1.701972,1.401508,0.795358,3.453492,-2.440287,-2.779119,10.865594,-13.851609,-2.072719,0.151599,0.186604,0.000000,-0.293950,-0.421227,0.000000
4.280000,0.804074,0.223863,-1.371384,0.884446,1.073583,0.058866,-1.666915,1.376419,0.767468,3.555751,-2.576754,-2.798506,9.588327,-13.437901,-1.807019,0.148591,0.182295,0.000000,-0.307654,-0.430679,-0.000000
4.290000,0.812836,0.234668,-1.370758,0.867956,1.087216,0.066400,-1.630900,1.349987,0.739396,3.645308,-2.708972,-2.815301,8.325981,-13.002088,-1.553879,0.145448,0.177900,0.000000,-0.320844,-0.438673,-0.000000
4.300000,0.821434,0.245607,-1.370057,0.851831,1.100578,0.073653,-1.594051,1.322255,0.711170,3.722334,-2.836729,-2.829619,7.082725,-12.546234,-1.311301,0.142176,0.173433,0.000000,-0.333494,-0.445240,0.000000
4.310000,0.829874,0.256678,-1.369286,0.836077,1.113657,0.080623,-1.556498,1.293269,0.682810,3.786627,-2.959778,-2.841758,5.873168,-12.073875,-1.072194,0.138780,0.168909,0.000000,-0.345581,-0.450372,-0.000000
4.320000,0.838157,0.267879,-1.368446,0.820703,1.126440,0.087309,-1.518358,1.263075,0.654342,3.839419,-3.078087,-2.851315,4.689759,-11.585418,-0.840280,0.135266,0.164343,0.000000,-0.357089,-0.454202,-0.000000
4.330000,0.846289,0.279206,-1.367540,0.805712,1.138915,0.093710,-1.479749,1.231723,0.625791,3.880519,-3.191439,-2.858583,3.535387,-11.082742,-0.614188,0.131640,0.159746,0.000000,-0.367999,-0.456723,0.000000
4.340000,0.854273,0.290656,-1.366572,0.791109,1.151070,0.099825,-1.440786,1.199263,0.597178,3.910233,-3.299701,-2.863613,2.412944,-10.567730,-0.392545,0.127908,0.155133,0.000000,-0.378294,-0.457979,-0.000000
4.350000,0.862112,0.302226,-1.365545,0.776897,1.162896,0.105653,-1.401581,1.165747,0.568526,3.928894,-3.402759,-2.866444,1.325318,-10.042263,-0.173980,0.124076,0.150515,0.000000,-0.387961,-0.458014,0.000000
4.360000,0.869812,0.313913,-1.364460,0.763078,1.174382,0.111195,-1.362248,1.131227,0.539854,3.936450,-3.500414,-2.867362,0.285866,-9.510836,0.049532,0.120151,0.145906,0.000000,-0.396982,-0.456837,-0.000000
4.370000,0.877375,0.325713,-1.363322,0.749652,1.185518,0.116451,-1.322886,1.095756,0.511186,3.934275,-3.592835,-2.865754,-0.714270,-8.972397,0.271898,0.116139,0.141316,0.000000,-0.405365,-0.454592,-0.000000
4.380000,0.884806,0.337622,-1.362132,0.736620,1.196294,0.121419,-1.283595,1.059388,0.482546,3.922301,-3.679843,-2.861926,-1.673483,-8.428504,0.493674,0.112046,0.136756,0.000000,-0.413096,-0.451288,-0.000000
4.390000,0.892109,0.349638,-1.360894,0.723980,1.206703,0.126102,-1.244471,1.022178,0.453955,3.900947,-3.761392,-2.855881,-2.590162,-7.880719,0.715420,0.107879,0.132236,0.000000,-0.420171,-0.446977,0.000000
4.400000,0.899287,0.361755,-1.359611,0.711730,1.216735,0.130499,-1.205606,0.984179,0.425436,3.870645,-3.837450,-2.847616,-3.462701,-7.330603,0.937694,0.103645,0.127767,0.000000,-0.426590,-0.441717,-0.000000
4.410000,0.906345,0.373971,-1.358285,0.699867,1.226384,0.134611,-1.167091,0.945448,0.397008,3.831465,-3.907882,-2.837354,-4.279886,-6.782742,1.166879,0.099349,0.123358,0.000000,-0.432344,-0.435527,-0.000000
4.420000,0.913286,0.386281,-1.356920,0.688386,1.235642,0.138439,-1.129003,0.906039,0.368696,3.784773,-3.972971,-2.824535,-5.050890,-6.235300,1.396994,0.095000,0.119016,0.000000,-0.437460,-0.428552,-0.000000
4.430000,0.920114,0.398682,-1.355518,0.677285,1.244502,0.141985,-1.091420,0.866007,0.340525,3.730603,-4.032593,-2.809411,-5.775280,-5.689469,1.627883,0.090602,0.114750,0.000000,-0.441933,-0.420809,-0.000000
4.440000,0.926833,0.411170,-1.354081,0.666556,1.252960,0.145250,-1.054415,0.825406,0.312516,3.669424,-4.086770,-2.791975,-6.452624,-5.146438,1.859391,0.086163,0.110568,0.000000,-0.445770,-0.412357,-0.000000
4.450000,0.933446,0.423740,-1.352613,0.656194,1.261009,0.148236,-1.018054,0.784290,0.284693,3.601709,-4.135535,-2.772222,-7.082491,-4.607399,2.091363,0.081689,0.106475,0.000000,-0.448982,-0.403255,0.000000
4.460000,0.939958,0.436389,-1.351117,0.646193,1.268644,0.150945,-0.982404,0.742714,0.257078,3.527621,-4.178816,-2.750290,-7.656553,-4.076556,2.327249,0.077186,0.102478,0.000000,-0.451569,-0.393529,-0.000000
4.470000,0.946371,0.449112,-1.349595,0.636544,1.275862,0.153379,-0.947520,0.700731,0.229695,3.448383,-4.216952,-2.725839,-8.183239,-3.551716,2.562845,0.072660,0.098582,0.000000,-0.453572,-0.383312,0.000000
4.480000,0.952690,0.461905,-1.348051,0.627240,1.282658,0.155540,-0.913453,0.658393,0.202569,3.364113,-4.249873,-2.699036,-8.663084,-3.033701,2.797556,0.068116,0.094793,0.000000,-0.454992,-0.372625,-0.000000
4.490000,0.958917,0.474764,-1.346486,0.618272,1.289029,0.157431,-0.880253,0.615751,0.175722,3.275276,-4.277651,-2.669893,-9.096624,-2.523331,3.030783,0.063562,0.091114,0.000000,-0.455847,-0.361525,-0.000000
4.500000,0.965056,0.487684,-1.344903,0.609632,1.294972,0.159055,-0.847961,0.572856,0.149179,3.182333,-4.300368,-2.638427,-9.484393,-2.021429,3.261930,0.059001,0.087549,0.000000,-0.456152,-0.350066,0.000000
4.510000,0.971111,0.500662,-1.343305,0.601310,1.300485,0.160415,-0.816621,0.529761,0.122961,3.085514,-4.318005,-2.604704,-9.821248,-1.531502,3.491429,0.054440,0.084101,0.000000,-0.455918,-0.338277,-0.000000
4.520000,0.977084,0.513692,-1.341695,0.593296,1.305566,0.161515,-0.786262,0.486512,0.097092,2.985801,-4.330911,-2.568656,-10.114097,-1.051356,3.717528,0.049885,0.080774,0.000000,-0.455187,-0.326266,0.000000
4.530000,0.982978,0.526771,-1.340076,0.585581,1.310215,0.162359,-0.756914,0.443159,0.071595,2.883374,-4.339066,-2.530367,-10.364169,-0.581483,3.939503,0.045338,0.077569,0.000000,-0.453968,-0.314056,-0.000000
4.540000,0.988796,0.539895,-1.338449,0.578154,1.314429,0.162949,-0.728602,0.399747,0.046492,2.778656,-4.342576,-2.489882,-10.572694,-0.122375,4.156633,0.040807,0.074487,0.000000,-0.452281,-0.301694,0.000000
4.550000,0.994542,0.553059,-1.336818,0.571005,1.318210,0.163290,-0.701347,0.356322,0.021805,2.672055,-4.341551,-2.447253,-10.740904,0.325474,4.368195,0.036294,0.071530,0.000000,-0.450147,-0.289226,-0.000000
4.560000,1.000217,0.566258,-1.335184,0.564124,1.321556,0.163386,-0.675167,0.312931,-0.002446,2.563838,-4.336020,-2.402495,-10.866746,0.759399,4.572366,0.031805,0.068699,0.000000,-0.447578,-0.276681,-0.000000
4.570000,1.005825,0.579488,-1.333551,0.557498,1.324469,0.163242,-0.650074,0.269616,-0.026239,2.454698,-4.326306,-2.355779,-10.955134,1.181348,4.769657,0.027344,0.065994,0.000000,-0.444616,-0.264132,-0.000000
4.580000,1.011368,0.592746,-1.331920,0.551119,1.326949,0.162863,-0.626075,0.226419,-0.049555,2.344855,-4.312433,-2.307127,-11.007699,1.591094,4.959480,0.022914,0.063414,0.000000,-0.441272,-0.251604,-0.000000
4.590000,1.016848,0.606026,-1.330294,0.544973,1.328998,0.162253,-0.603178,0.183381,-0.072375,2.234658,-4.294525,-2.256617,-11.026072,1.988412,5.141247,0.018520,0.060960,0.000000,-0.437566,-0.239131,0.000000
4.600000,1.022268,0.619324,-1.328676,0.539051,1.330617,0.161417,-0.581382,0.140542,-0.094681,2.124442,-4.272707,-2.204331,-11.011886,2.373075,5.314369,0.014164,0.058630,0.000000,-0.433518,-0.226748,-0.000000
4.610000,1.027630,0.632637,-1.327067,0.533342,1.331809,0.160361,-0.560688,0.097940,-0.116455,2.014482,-4.247044,-2.150267,-10.965726,2.743257,5.475919,0.009851,0.056424,0.000000,-0.429143,-0.214482,0.000000
4.620000,1.032936,0.645959,-1.325469,0.527834,1.332577,0.159090,-0.541091,0.055613,-0.137681,1.905178,-4.217814,-2.094740,-10.890397,3.100528,5.627934,0.005582,0.054340,0.000000,-0.424475,-0.202372,0.000000
4.630000,1.038187,0.659287,-1.323886,0.522517,1.332922,0.157609,-0.522582,0.013595,-0.158345,1.796766,-4.185076,-2.037741,-10.787660,3.444859,5.770112,0.001362,0.052376,0.000000,-0.419525,-0.190440,-0.000000
4.640000,1.043387,0.672616,-1.322318,0.517379,1.332850,0.155925,-0.505151,-0.028077,-0.178431,1.689510,-4.148960,-1.979372,-10.659273,3.776218,5.902153,-0.002807,0.050531,0.000000,-0.414312,-0.178711,-0.000000
4.650000,1.048535,0.685942,-1.320768,0.512410,1.332362,0.154043,-0.488787,-0.069373,-0.197928,1.583660,-4.109595,-1.919733,-10.506997,4.094576,6.023755,-0.006923,0.048801,0.000000,-0.408854,-0.167206,0.000000
4.660000,1.053635,0.699262,-1.319238,0.507599,1.331464,0.151968,-0.473473,-0.110259,-0.216821,1.479473,-4.067070,-1.858828,-10.333328,4.398845,6.131992,-0.010984,0.047186,0.000000,-0.403164,-0.155948,0.000000
4.670000,1.058688,0.712570,-1.317729,0.502937,1.330158,0.149708,-0.459191,-0.150704,-0.235101,1.377094,-4.021614,-1.797012,-10.139198,4.690181,6.229507,-0.014986,0.045681,0.000000,-0.397267,-0.144950,0.000000
4.680000,1.063694,0.725864,-1.316244,0.498412,1.328451,0.147268,-0.445924,-0.190681,-0.252758,1.276752,-3.973309,-1.734274,-9.926277,4.968685,6.316320,-0.018928,0.044285,0.000000,-0.391176,-0.134229,-0.000000
4.690000,1.068657,0.739138,-1.314784,0.494015,1.326346,0.144655,-0.433649,-0.230161,-0.269784,1.178626,-3.922283,-1.670721,-9.696236,5.234456,6.392450,-0.022809,0.042995,0.000000,-0.384904,-0.123799,-0.000000
4.700000,1.073575,0.752389,-1.313351,0.489736,1.323850,0.141875,-0.422343,-0.269118,-0.286170,1.082879,-3.868662,-1.606461,-9.450743,5.487593,6.457917,-0.026626,0.041808,0.000000,-0.378467,-0.113673,0.000000
4.710000,1.078452,0.765614,-1.311947,0.485565,1.320966,0.138934,-0.411982,-0.307526,-0.301910,0.989733,-3.812548,-1.541513,-9.193388,5.727582,6.510597,-0.030378,0.040720,0.000000,-0.371876,-0.103868,-0.000000
4.720000,1.083287,0.778807,-1.310573,0.481493,1.317701,0.135839,-0.402540,-0.345362,-0.316999,0.899138,-3.754124,-1.476187,-8.923686,5.955210,6.552916,-0.034063,0.039728,0.000000,-0.365149,-0.094376,0.000000
4.730000,1.088082,0.791967,-1.309231,0.477511,1.314061,0.132596,-0.393990,-0.382601,-0.331433,0.811296,-3.693485,-1.410489,-8.643072,6.170654,6.585155,-0.037680,0.038830,0.000000,-0.358296,-0.085212,-0.000000
4.740000,1.092837,0.805087,-1.307922,0.473611,1.310051,0.129212,-0.386304,-0.419224,-0.345208,0.726308,-3.630751,-1.344517,-8.352980,6.374087,6.607597,-0.041228,0.038022,0.000000,-0.351328,-0.076382,0.000000
4.750000,1.097554,0.818166,-1.306647,0.469783,1.305678,0.125694,-0.379454,-0.455210,-0.358322,0.644263,-3.566043,-1.278369,-8.054844,6.565684,6.620524,-0.044706,0.037300,0.000000,-0.344257,-0.067889,0.000000
4.760000,1.102233,0.831200,-1.305408,0.466019,1.300949,0.122048,-0.373408,-0.490539,-0.370774,0.565335,-3.499464,-1.212089,-7.752659,6.745305,6.622989,-0.048113,0.036661,0.000000,-0.337093,-0.059747,0.000000
4.770000,1.106875,0.844184,-1.304207,0.462312,1.295870,0.118281,-0.368137,-0.525193,-0.382564,0.489342,-3.431161,-1.145883,-7.444987,6.913478,6.616653,-0.051448,0.036103,0.000000,-0.329847,-0.051934,-0.000000
4.780000,1.111480,0.857116,-1.303043,0.458654,1.290447,0.114399,-0.363611,-0.559157,-0.393692,0.416449,-3.361232,-1.079783,-7.132948,7.070416,6.601950,-0.054710,0.035620,0.000000,-0.322529,-0.044461,-0.000000
4.790000,1.116048,0.869992,-1.301919,0.455037,1.284689,0.110409,-0.359798,-0.592413,-0.404161,0.346694,-3.289789,-1.013871,-6.817665,7.216332,6.579310,-0.057898,0.035211,0.000000,-0.315146,-0.037330,0.000000
4.800000,1.120580,0.882809,-1.300835,0.451455,1.278602,0.106318,-0.356666,-0.624948,-0.413971,0.280103,-3.216941,-0.948222,-6.500257,7.351438,6.549168,-0.061013,0.034871,0.000000,-0.307707,-0.030538,0.000000
4.810000,1.125077,0.895563,-1.299793,0.447902,1.272193,0.102132,-0.354184,-0.656747,-0.423126,0.216797,-3.142790,-0.882903,-6.184489,7.475812,6.511748,-0.064052,0.034598,0.000000,-0.300220,-0.024094,-0.000000
4.820000,1.129539,0.908251,-1.298793,0.444370,1.265469,0.097858,-0.352320,-0.687799,-0.431630,0.156532,-3.067453,-0.818000,-5.868516,7.589820,6.467716,-0.067017,0.034387,0.000000,-0.292694,-0.017970,-0.000000
4.830000,1.133965,0.920871,-1.297836,0.440853,1.258439,0.093502,-0.351043,-0.718093,-0.439488,0.099425,-2.991028,-0.753569,-5.553135,7.693691,6.417528,-0.069906,0.034236,0.000000,-0.285134,-0.012174,-0.000000
4.840000,1.138356,0.933419,-1.296923,0.437347,1.251110,0.089070,-0.350321,-0.747617,-0.446703,0.045465,-2.913613,-0.689669,-5.239145,7.787655,6.361644,-0.072720,0.034142,0.000000,-0.277549,-0.006704,0.000000
4.850000,1.142712,0.945893,-1.296055,0.433845,1.243489,0.084570,-0.350123,-0.776362,-0.453283,-0.005366,-2.835307,-0.626354,-4.927341,7.871942,6.300520,-0.075457,0.034101,0.000000,-0.269944,-0.001553,-0.000000
4.860000,1.147033,0.958288,-1.295232,0.430343,1.235585,0.080007,-0.350417,-0.804320,-0.459233,-0.052998,-2.756203,-0.563700,-4.620895,7.946716,6.235265,-0.078118,0.034110,0.000000,-0.262325,0.003274,0.000000
4.870000,1.151318,0.970603,-1.294455,0.426835,1.227406,0.075387,-0.351173,-0.831484,-0.464559,-0.097689,-2.676400,-0.501692,-4.317942,8.012279,6.165607,-0.080704,0.034166,0.000000,-0.254699,0.007804,-0.000000
4.880000,1.155569,0.982835,-1.293724,0.423318,1.218958,0.070717,-0.352361,-0.857846,-0.469269,-0.139370,-2.595987,-0.440401,-4.018987,8.068871,6.091923,-0.083212,0.034265,0.000000,-0.247071,0.012034,-0.000000
4.890000,1.159785,0.994982,-1.293041,0.419787,1.210251,0.066004,-0.353950,-0.883402,-0.473370,-0.178084,-2.515052,-0.379866,-3.724539,8.116729,6.014593,-0.085645,0.034406,0.000000,-0.239446,0.015968,-0.000000
4.900000,1.163965,1.007040,-1.292404,0.416238,1.201293,0.061252,-0.355913,-0.908146,-0.476869,-0.213878,-2.433681,-0.320120,-3.435104,8.156091,5.933993,-0.088001,0.034585,0.000000,-0.231829,0.019615,0.000000
4.910000,1.168109,1.019007,-1.291816,0.412667,1.192091,0.056468,-0.358218,-0.932074,-0.479775,-0.246727,-2.351954,-0.261242,-3.153156,8.187112,5.851681,-0.090282,0.034799,0.000000,-0.224225,0.022972,0.000000
4.920000,1.172218,1.030881,-1.291275,0.409072,1.182654,0.051658,-0.360838,-0.955184,-0.482097,-0.276872,-2.269962,-0.203148,-2.876995,8.210123,5.766712,-0.092486,0.035045,0.000000,-0.216639,0.026065,0.000000
4.930000,1.176291,1.042659,-1.290783,0.405450,1.172990,0.046828,-0.363746,-0.977473,-0.483841,-0.304287,-2.187778,-0.145916,-2.606887,8.225371,5.679320,-0.094614,0.035322,0.000000,-0.209075,0.028893,-0.000000
4.940000,1.180327,1.054340,-1.290339,0.401796,1.163107,0.041984,-0.366915,-0.998939,-0.485018,-0.329031,-2.105479,-0.089569,-2.343099,8.233103,5.589737,-0.096668,0.035625,0.000000,-0.201537,0.031462,0.000000
4.950000,1.184327,1.065920,-1.289943,0.398110,1.153014,0.037130,-0.370318,-1.019582,-0.485636,-0.351171,-2.023140,-0.034128,-2.085896,8.233569,5.498198,-0.098645,0.035953,0.000000,-0.194028,0.033781,-0.000000
4.960000,1.188289,1.077399,-1.289596,0.394389,1.142719,0.032273,-0.373929,-1.039402,-0.485704,-0.370714,-1.940826,0.020337,-1.837012,8.226890,5.406261,-0.100548,0.036303,0.000000,-0.186553,0.035849,0.000000
4.970000,1.192214,1.088774,-1.289298,0.390631,1.132229,0.027418,-0.377724,-1.058399,-0.485232,-0.387868,-1.858619,0.073933,-1.595066,8.213455,5.312673,-0.102376,0.036673,0.000000,-0.179115,0.037689,0.000000
4.980000,1.196102,1.100043,-1.289048,0.386834,1.121553,0.022570,-0.381678,-1.076575,-0.484229,-0.402639,-1.776579,0.126585,-1.360145,8.193526,5.217505,-0.104131,0.037060,0.000000,-0.171718,0.039301,0.000000
4.990000,1.199951,1.111205,-1.288846,0.382997,1.110700,0.017735,-0.385769,-1.093931,-0.482703,-0.415095,-1.694769,0.178278,-1.132337,8.167368,5.120829,-0.105811,0.037462,0.000000,-0.164364,0.040692,-0.000000
5.000000,1.203761,1.122257,-1.288693,0.379119,1.099677,0.012917,-0.389973,-1.110471,-0.480666,-0.425309,-1.613251,0.228997,-0.911728,8.135243,5.022717,-0.107418,0.037878,0.000000,-0.157057,0.041870,-0.000000
5.010000,1.207533,1.133198,-1.288588,0.375197,1.088493,0.008123,-0.394268,-1.126198,-0.478127,-0.433315,-1.532077,0.278684,-0.699396,8.097249,4.924355,-0.108952,0.038304,0.000000,-0.149798,0.042837,0.000000
5.020000,1.211265,1.144026,-1.288530,0.371233,1.077156,0.003357,-0.398632,-1.141114,-0.475096,-0.439277,-1.451317,0.327429,-0.494315,8.053834,4.824564,-0.110414,0.038739,0.000000,-0.142591,0.043611,0.000000
5.030000,1.214958,1.154740,-1.288521,0.367225,1.065674,-0.001377,-0.403046,-1.155225,-0.471582,-0.443225,-1.371017,0.375170,-0.296451,8.005283,4.723278,-0.111804,0.039181,0.000000,-0.135438,0.044193,-0.000000
5.040000,1.218610,1.165339,-1.288558,0.363172,1.054054,-0.006074,-0.407490,-1.168536,-0.467596,-0.445230,-1.291227,0.421890,-0.105770,7.951879,4.620431,-0.113123,0.039628,0.000000,-0.128341,0.044591,0.000000
5.050000,1.222221,1.175821,-1.288642,0.359075,1.042306,-0.010728,-0.411945,-1.181052,-0.463148,-0.445364,-1.211995,0.467573,0.077762,7.893905,4.515960,-0.114371,0.040078,0.000000,-0.121302,0.044810,0.000000
5.060000,1.225791,1.186185,-1.288772,0.354933,1.030436,-0.015335,-0.416391,-1.192778,-0.458248,-0.443676,-1.133357,0.512178,0.253603,7.831483,4.410445,-0.115549,0.040529,0.000000,-0.114321,0.044856,0.000000
5.070000,1.229319,1.196429,-1.288948,0.350747,1.018453,-0.019891,-0.420813,-1.203721,-0.452908,-0.440290,-1.055371,0.555747,0.422436,7.765079,4.303095,-0.116658,0.040980,0.000000,-0.107402,0.044740,-0.000000
5.080000,1.232806,1.206553,-1.289170,0.346517,1.006364,-0.024392,-0.425192,-1.213888,-0.447137,-0.435250,-0.978068,0.598233,0.584365,7.694995,4.193768,-0.117698,0.041430,0.000000,-0.100544,0.044465,0.000000
5.090000,1.236250,1.216556,-1.289436,0.342243,0.994178,-0.028832,-0.429512,-1.223285,-0.440947,-0.428625,-0.901483,0.639615,0.739496,7.621535,4.082317,-0.118669,0.041875,0.000000,-0.093749,0.044038,0.000000
5.100000,1.239650,1.226437,-1.289746,0.337927,0.981901,-0.033209,-0.433759,-1.231920,-0.434348,-0.420482,-0.825648,0.679872,0.887934,7.545001,3.968600,-0.119573,0.042316,0.000000,-0.087018,0.043464,0.000000
5.110000,1.243008,1.236194,-1.290100,0.333569,0.969542,-0.037518,-0.437917,-1.239800,-0.427353,-0.410879,-0.750589,0.718978,1.029540,7.465628,3.852514,-0.120410,0.042750,0.000000,-0.080350,0.042749,-0.000000
5.120000,1.246322,1.245827,-1.290496,0.329169,0.957107,-0.041755,-0.441972,-1.246934,-0.419973,-0.399902,-0.676340,0.756912,1.164694,7.383797,3.733867,-0.121180,0.043177,0.000000,-0.073746,0.041900,0.000000
5.130000,1.249591,1.255336,-1.290935,0.324729,0.944605,-0.045916,-0.445911,-1.253330,-0.412219,-0.387606,-0.602920,0.793646,1.293531,7.299819,3.612511,-0.121885,0.043594,0.000000,-0.067207,0.040920,-0.000000
5.140000,1.252816,1.264719,-1.291414,0.320251,0.932043,-0.049998,-0.449720,-1.258996,-0.404104,-0.374052,-0.530350,0.829152,1.416186,7.214006,3.488297,-0.122524,0.044001,0.000000,-0.060731,0.039817,0.000000
5.150000,1.255996,1.273977,-1.291935,0.315736,0.919428,-0.053997,-0.453388,-1.263940,-0.395640,-0.359302,-0.458645,0.863402,1.532794,7.126670,3.361075,-0.123100,0.044396,0.000000,-0.054318,0.038594,-0.000000
5.160000,1.259131,1.283108,-1.292494,0.311184,0.906767,-0.057910,-0.456902,-1.268171,-0.386840,-0.343417,-0.387825,0.896385,1.643502,7.038248,3.230136,-0.123611,0.044778,0.000000,-0.047968,0.037256,-0.000000
5.170000,1.262220,1.292112,-1.293092,0.306598,0.894067,-0.061733,-0.460252,-1.271699,-0.377717,-0.326452,-0.317889,0.928019,1.748432,6.948911,3.095960,-0.124059,0.045146,0.000000,-0.041679,0.035808,-0.000000
5.180000,1.265263,1.300989,-1.293729,0.301980,0.881335,-0.065463,-0.463428,-1.274532,-0.368284,-0.308467,-0.248849,0.958294,1.847719,6.858955,2.958465,-0.124445,0.045500,0.000000,-0.035450,0.034255,-0.000000
5.190000,1.268259,1.309738,-1.294401,0.297330,0.868579,-0.069098,-0.466419,-1.276679,-0.358556,-0.289516,-0.180711,0.987177,1.941495,6.768676,2.817571,-0.124768,0.045837,0.000000,-0.029279,0.032600,-0.000000
5.200000,1.271209,1.318360,-1.295110,0.292652,0.855804,-0.072633,-0.469215,-1.278149,-0.348545,-0.269655,-0.113476,1.014633,2.029894,6.678372,2.673197,-0.125031,0.046156,0.000000,-0.023166,0.030849,-0.000000
5.210000,1.274112,1.326854,-1.295854,0.287946,0.843018,-0.076068,-0.471809,-1.278952,-0.338267,-0.248943,-0.047160,1.040669,2.113245,6.588764,2.524232,-0.125232,0.046458,0.000000,-0.017109,0.029006,0.000000
5.220000,1.276968,1.335221,-1.296631,0.283216,0.830227,-0.079398,-0.474191,-1.279096,-0.327737,-0.227416,0.018282,1.065152,2.191462,6.499671,2.371751,-0.125373,0.046741,0.000000,-0.011103,0.027073,0.000000
5.230000,1.279776,1.343459,-1.297441,0.278463,0.817438,-0.082622,-0.476355,-1.278589,-0.316969,-0.205131,0.082836,1.088093,2.264657,6.411335,2.215800,-0.125454,0.047004,0.000000,-0.005148,0.025056,-0.000000
5.240000,1.282537,1.351569,-1.298283,0.273690,0.804657,-0.085737,-0.478292,-1.277442,-0.305980,-0.182139,0.146512,1.109457,2.332939,6.324001,2.056423,-0.125476,0.047246,0.000000,0.000759,0.022957,0.000000
5.250000,1.285250,1.359552,-1.299156,0.268898,0.791891,-0.088741,-0.479995,-1.275662,-0.294786,-0.158488,0.209321,1.129210,2.396419,6.237914,1.893666,-0.125439,0.047466,0.000000,0.006620,0.020781,-0.000000
5.260000,1.287915,1.367407,-1.300058,0.264091,0.779146,-0.091632,-0.481459,-1.273259,-0.283401,-0.134238,0.271243,1.147369,2.455516,6.154130,1.726301,-0.125344,0.047664,0.000000,0.012434,0.018533,0.000000
5.270000,1.290532,1.375135,-1.300988,0.259270,0.766428,-0.094408,-0.482678,-1.270240,-0.271844,-0.109407,0.332372,1.163783,2.509993,6.071981,1.555802,-0.125191,0.047839,0.000000,0.018213,0.016213,0.000000
5.280000,1.293100,1.382736,-1.301945,0.254438,0.753743,-0.097068,-0.483646,-1.266614,-0.260131,-0.084054,0.392689,1.178476,2.559921,5.991610,1.382370,-0.124980,0.047991,0.000000,0.023954,0.013827,0.000000
5.290000,1.295621,1.390210,-1.302929,0.249598,0.741098,-0.099610,-0.484358,-1.262389,-0.248280,-0.058224,0.452211,1.191421,2.605372,5.913161,1.206206,-0.124712,0.048118,0.000000,0.029661,0.011377,-0.000000
5.300000,1.298092,1.397558,-1.303937,0.244752,0.728498,-0.102033,-0.484809,-1.257572,-0.236309,-0.031961,0.510959,1.202591,2.646419,5.836780,1.027512,-0.124387,0.048220,0.000000,0.035336,0.008868,-0.000000
5.310000,1.300516,1.404780,-1.304969,0.239903,0.715948,-0.104336,-0.484996,-1.252173,-0.224234,-0.005324,0.568905,1.212012,2.683497,5.763837,0.845248,-0.124005,0.048297,0.000000,0.040976,0.006305,0.000000
5.320000,1.302890,1.411877,-1.306024,0.235053,0.703456,-0.106518,-0.484914,-1.246197,-0.212074,0.021678,0.626188,1.219545,2.716269,5.693099,0.661007,-0.123567,0.048347,0.000000,0.046598,0.003688,-0.000000
5.330000,1.305217,1.418850,-1.307099,0.230205,0.691026,-0.108577,-0.484561,-1.239651,-0.199849,0.048987,0.682775,1.225227,2.744764,5.624560,0.475143,-0.123073,0.048371,0.000000,0.052197,0.001021,0.000000
5.340000,1.307495,1.425698,-1.308195,0.225363,0.678665,-0.110514,-0.483934,-1.232543,-0.187576,0.076560,0.738687,1.229044,2.769009,5.558213,0.288009,-0.122523,0.048367,0.000000,0.057776,-0.001690,-0.000000
5.350000,1.309724,1.432423,-1.309309,0.220528,0.666377,-0.112329,-0.483029,-1.224880,-0.175274,0.104353,0.793946,1.230984,2.789031,5.494054,0.099959,-0.121918,0.048336,0.000000,0.063337,-0.004443,0.000000
5.360000,1.311905,1.439026,-1.310441,0.215703,0.654169,-0.114020,-0.481846,-1.216667,-0.162962,0.132312,0.848512,1.231078,2.805216,5.433661,-0.089593,-0.121257,0.048278,0.000000,0.068875,-0.007232,-0.000000
5.370000,1.314038,1.445507,-1.311589,0.210892,0.642046,-0.115588,-0.480382,-1.207911,-0.150659,0.160427,0.902555,1.229234,2.817190,5.375249,-0.279241,-0.120540,0.048191,0.000000,0.074408,-0.010057,0.000000
5.380000,1.316123,1.451867,-1.312752,0.206096,0.630013,-0.117033,-0.478637,-1.198618,-0.138384,0.188642,0.956023,1.225495,2.824936,5.318617,-0.468517,-0.119769,0.048075,0.000000,0.079930,-0.012912,-0.000000
5.390000,1.318160,1.458107,-1.313929,0.201320,0.618075,-0.118356,-0.476609,-1.188793,-0.126156,0.216912,1.008933,1.219866,2.828437,5.263564,-0.656953,-0.118942,0.047930,0.000000,0.085442,-0.015793,0.000000
5.400000,1.320149,1.464229,-1.315119,0.196565,0.606239,-0.119557,-0.474299,-1.178441,-0.113993,0.245196,1.061299,1.212360,2.827676,5.209890,-0.844080,-0.118060,0.047757,0.000000,0.090945,-0.018695,0.000000
5.410000,1.322091,1.470233,-1.316320,0.191835,0.594508,-0.120636,-0.471706,-1.167569,-0.101914,0.273439,1.113063,1.203008,2.822950,5.159209,-1.029855,-0.117123,0.047554,0.000000,0.096431,-0.021613,-0.000000
5.420000,1.323986,1.476119,-1.317531,0.187132,0.582889,-0.121595,-0.468830,-1.156182,-0.089939,0.301627,1.164405,1.191789,2.813891,5.109285,-1.213334,-0.116131,0.047322,0.000000,0.101919,-0.024545,0.000000
5.430000,1.325834,1.481891,-1.318751,0.182459,0.571386,-0.122435,-0.465674,-1.144283,-0.078085,0.329702,1.215249,1.178750,2.800445,5.059693,-1.393997,-0.115085,0.047060,0.000000,0.107399,-0.027485,-0.000000
5.440000,1.327636,1.487548,-1.319980,0.177819,0.560005,-0.123157,-0.462237,-1.131878,-0.066370,0.357621,1.265598,1.163921,2.782558,5.010012,-1.571326,-0.113983,0.046768,0.000000,0.112869,-0.030428,-0.000000
5.450000,1.329391,1.493091,-1.321214,0.173215,0.548750,-0.123763,-0.458522,-1.118973,-0.054812,0.385338,1.315448,1.147337,2.760174,4.959819,-1.744799,-0.112827,0.046447,0.000000,0.118329,-0.033370,0.000000
5.460000,1.331100,1.498523,-1.322454,0.168650,0.537627,-0.124254,-0.454531,-1.105572,-0.043429,0.412800,1.364719,1.129031,2.733461,4.910509,-1.913702,-0.111617,0.046097,0.000000,0.123768,-0.036303,0.000000
5.470000,1.332764,1.503844,-1.323699,0.164126,0.526641,-0.124632,-0.450267,-1.091680,-0.032237,0.439982,1.413572,1.109070,2.702115,4.859620,-2.077733,-0.110352,0.045717,0.000000,0.129201,-0.039226,-0.000000
5.480000,1.334383,1.509056,-1.324947,0.159645,0.515795,-0.124900,-0.445732,-1.077302,-0.021253,0.466827,1.461904,1.087495,2.666055,4.806505,-2.236400,-0.109033,0.045307,0.000000,0.134615,-0.042130,-0.000000
5.490000,1.335957,1.514161,-1.326197,0.155212,0.505096,-0.125058,-0.440931,-1.062444,-0.010492,0.493287,1.509692,1.064362,2.625198,4.750520,-2.389205,-0.107660,0.044869,0.000000,0.140005,-0.045011,-0.000000
5.500000,1.337487,1.519159,-1.327447,0.150828,0.494548,-0.125110,-0.435868,-1.047110,0.000029,0.519315,1.556903,1.039732,2.579462,4.691019,-2.535653,-0.106233,0.044402,0.000000,0.145367,-0.047862,0.000000
5.510000,1.338974,1.524052,-1.328698,0.146495,0.484156,-0.125058,-0.430547,-1.031308,0.010297,0.544855,1.603436,1.013640,2.528891,4.628945,-2.674454,-0.104752,0.043906,0.000000,0.150687,-0.050677,-0.000000
5.520000,1.340417,1.528842,-1.329948,0.142217,0.473923,-0.124905,-0.424973,-1.015044,0.020298,0.569870,1.649394,0.986231,2.473263,4.561870,-2.806005,-0.103219,0.043383,0.000000,0.155973,-0.053451,-0.000000
5.530000,1.341818,1.533531,-1.331196,0.137997,0.463856,-0.124653,-0.419151,-0.998323,0.030018,0.594303,1.694654,0.957545,2.412480,4.488955,-2.929906,-0.101633,0.042832,0.000000,0.161210,-0.056176,0.000000
5.540000,1.343177,1.538120,-1.332441,0.133835,0.453958,-0.124306,-0.413089,-0.981153,0.039445,0.618102,1.739151,0.927660,2.346445,4.409360,-3.045760,-0.099995,0.042254,0.000000,0.166389,-0.058846,-0.000000
5.550000,1.344495,1.542611,-1.333682,0.129736,0.444235,-0.123865,-0.406792,-0.963542,0.048567,0.641214,1.782816,0.896658,2.275062,4.322245,-3.153168,-0.098306,0.041649,0.000000,0.171499,-0.061455,0.000000
5.560000,1.345772,1.547005,-1.334918,0.125700,0.434689,-0.123335,-0.400267,-0.945500,0.057374,0.663584,1.825523,0.864577,2.198275,4.227919,-3.250486,-0.096565,0.041019,0.000000,0.176526,-0.063995,0.000000
5.570000,1.347009,1.551305,-1.336148,0.121731,0.425326,-0.122719,-0.393523,-0.927035,0.065855,0.685159,1.867292,0.831623,2.115941,4.124254,-3.338714,-0.094775,0.040364,0.000000,0.181467,-0.066460,-0.000000
5.580000,1.348207,1.555512,-1.337372,0.117830,0.416150,-0.122019,-0.386567,-0.908158,0.074003,0.705884,1.907973,0.797834,2.027956,4.010269,-3.417606,-0.092936,0.039684,0.000000,0.186305,-0.068841,0.000000
5.590000,1.349366,1.559629,-1.338589,0.114000,0.407164,-0.121240,-0.379408,-0.888880,0.081810,0.725699,1.947460,0.763303,1.934219,3.884983,-3.486916,-0.091050,0.038981,0.000000,0.191025,-0.071133,0.000000
5.600000,1.350487,1.563656,-1.339797,0.110243,0.398373,-0.120384,-0.372056,-0.869213,0.089267,0.744549,1.985632,0.728128,1.834628,3.747416,-3.546399,-0.089116,0.038256,0.000000,0.195612,-0.073327,-0.000000
5.610000,1.351571,1.567597,-1.340996,0.106560,0.389781,-0.119456,-0.364520,-0.849172,0.096370,0.762374,2.022342,0.692351,1.729036,3.597144,-3.594342,-0.087138,0.037509,0.000000,0.200048,-0.075416,0.000000
5.620000,1.352619,1.571453,-1.342186,0.102953,0.381391,-0.118458,-0.356812,-0.828772,0.103113,0.779111,2.057503,0.656210,1.617391,3.432562,-3.632146,-0.085116,0.036742,0.000000,0.204321,-0.077393,0.000000
5.630000,1.353631,1.575226,-1.343365,0.099424,0.373207,-0.117395,-0.348942,-0.808028,0.109493,0.794701,2.090942,0.619742,1.499595,3.252622,-3.659744,-0.083052,0.035956,0.000000,0.208410,-0.079249,0.000000
5.640000,1.354607,1.578918,-1.344533,0.095975,0.365232,-0.116270,-0.340922,-0.786959,0.115507,0.809082,2.122500,0.583049,1.375552,3.056276,-3.677070,-0.080948,0.035152,0.000000,0.212295,-0.080976,-0.000000
5.650000,1.355550,1.582531,-1.345690,0.092606,0.357469,-0.115086,-0.332765,-0.765585,0.121153,0.822191,2.152009,0.546235,1.245166,2.842476,-3.684058,-0.078807,0.034332,0.000000,0.215958,-0.082568,-0.000000
5.660000,1.356460,1.586068,-1.346835,0.089320,0.349921,-0.113848,-0.324483,-0.743926,0.126431,0.833976,2.179294,0.509346,1.108023,2.610022,-3.679216,-0.076630,0.033496,0.000000,0.219376,-0.084018,-0.000000
5.670000,1.357337,1.589530,-1.347967,0.086117,0.342591,-0.112559,-0.316090,-0.722007,0.131341,0.844344,2.204151,0.472621,0.964382,2.358036,-3.664077,-0.074420,0.032647,0.000000,0.222526,-0.085315,-0.000000
5.680000,1.358182,1.592920,-1.349086,0.082998,0.335482,-0.111222,-0.307601,-0.699852,0.135884,0.853242,2.226386,0.436098,0.814183,2.085487,-3.638752,-0.072181,0.031786,0.000000,0.225385,-0.086452,-0.000000
5.690000,1.358997,1.596240,-1.350191,0.079965,0.328595,-0.109842,-0.299030,-0.677489,0.140064,0.860605,2.245789,0.399880,0.657369,1.791346,-3.603348,-0.069914,0.030914,0.000000,0.227930,-0.087421,0.000000
