time,x,y,z,vx,vy,vz,ax,ay,az,jx,jy,jz,sx,sy,sz
0.000000,-2.327297,-1.490530,1.453732,0.009284,0.017727,0.007840,-0.082064,-0.838486,-0.066763,-1.170076,18.351432,0.304566,169.825390,-289.587068,6.719272
0.010000,-2.327209,-1.490391,1.453807,0.008432,0.010213,0.007189,-0.085661,-0.668790,-0.063393,0.412794,15.652167,0.368419,147.083706,-250.890454,6.048307
0.020000,-2.327128,-1.490320,1.453876,0.007620,0.004267,0.006574,-0.074533,-0.524214,-0.059418,1.778146,13.321428,0.425475,126.306215,-215.852184,5.360309
0.030000,-2.327056,-1.490302,1.453939,0.006984,-0.000344,0.006002,-0.050759,-0.401253,-0.054907,2.945154,11.323519,0.475580,107.399445,-184.295112,4.658760
0.040000,-2.326988,-1.490323,1.453996,0.006640,-0.003819,0.005478,-0.016230,-0.296748,-0.049930,3.932059,9.624513,0.518617,90.269922,-156.042088,3.947145
0.050000,-2.326921,-1.490375,1.454049,0.006689,-0.006331,0.005005,0.027339,-0.207873,-0.044558,4.756165,8.192254,0.554501,74.824171,-130.915967,3.228947
0.060000,-2.326852,-1.490447,1.454097,0.007212,-0.008021,0.004588,0.078405,-0.132115,-0.038864,5.433843,6.996361,0.583185,60.968718,-108.739599,2.507649
0.070000,-2.326775,-1.490533,1.454141,0.008278,-0.009009,0.004228,0.135580,-0.067254,-0.032918,5.980529,6.008220,0.604655,48.610092,-89.335837,1.786736
0.080000,-2.326685,-1.490625,1.454181,0.009940,-0.009395,0.003930,0.197627,-0.011348,-0.026795,6.410723,5.200992,0.618933,37.654816,-72.527533,1.069691
0.090000,-2.326574,-1.490719,1.454219,0.012243,-0.009260,0.003693,0.263451,0.037285,-0.020564,6.737992,4.549609,0.626074,28.009419,-58.137541,0.359997
0.100000,-2.326438,-1.490809,1.454255,0.015218,-0.008669,0.003519,0.332086,0.080086,-0.014297,6.974966,4.030771,0.626169,19.580425,-45.988711,-0.338862
0.110000,-2.326268,-1.490891,1.454290,0.018891,-0.007674,0.003407,0.402689,0.118271,-0.008063,7.133343,3.622954,0.619344,12.274362,-35.903897,-1.023402
0.120000,-2.326057,-1.490961,1.454324,0.023276,-0.006316,0.003357,0.474527,0.152849,-0.001932,7.223885,3.306404,0.605760,5.997755,-27.705950,-1.690140
0.130000,-2.325800,-1.491016,1.454357,0.028384,-0.004626,0.003368,0.546973,0.184643,0.004030,7.256418,3.063136,0.585612,0.657131,-21.217723,-2.335592
0.140000,-2.325487,-1.491053,1.454391,0.034216,-0.002630,0.003437,0.619492,0.214302,0.009759,7.239836,2.876941,0.559131,-3.840983,-16.262068,-2.956274
0.150000,-2.325113,-1.491068,1.454426,0.040772,-0.000346,0.003562,0.691633,0.242323,0.015192,7.182095,2.733377,0.526581,-7.590063,-12.661838,-3.548704
0.160000,-2.324670,-1.491059,1.454463,0.048046,0.002212,0.003740,0.763020,0.269069,0.020271,7.090220,2.619776,0.488263,-10.683580,-10.239885,-4.109397
0.170000,-2.324150,-1.491023,1.454501,0.056029,0.005032,0.003966,0.833344,0.294782,0.024940,6.970297,2.525242,0.444511,-13.215010,-8.819061,-4.634870
0.180000,-2.323547,-1.490957,1.454542,0.064709,0.008105,0.004237,0.902350,0.319607,0.029145,6.827482,2.440648,0.395694,-15.277825,-8.222218,-5.121639
0.190000,-2.322853,-1.490860,1.454586,0.074071,0.011422,0.004547,0.969831,0.343604,0.032838,6.665991,2.358642,0.342218,-16.965500,-8.272209,-5.566220
0.200000,-2.322063,-1.490728,1.454633,0.084100,0.014974,0.004892,1.035618,0.366769,0.035975,6.489110,2.273639,0.284522,-18.371507,-8.791886,-5.965131
0.210000,-2.321169,-1.490560,1.454684,0.094769,0.018766,0.005265,1.099872,0.388612,0.038513,6.327047,2.141131,0.222786,-20.292960,-8.576183,-6.307472
0.220000,-2.320166,-1.490352,1.454739,0.106081,0.022758,0.005660,1.162098,0.409595,0.040420,6.115267,2.055422,0.158214,-22.033533,-8.601738,-6.598083
0.230000,-2.319046,-1.490104,1.454797,0.118004,0.026955,0.006071,1.222122,0.429716,0.041668,5.886955,1.968463,0.091005,-23.600541,-8.817271,-6.834388
0.240000,-2.317803,-1.489812,1.454860,0.130515,0.031349,0.006491,1.279788,0.448955,0.042233,5.643810,1.878614,0.021716,-25.001298,-9.171502,-7.013812
0.250000,-2.316433,-1.489476,1.454927,0.143591,0.035931,0.006913,1.334955,0.467275,0.042097,5.387458,1.784742,-0.049073,-26.243118,-9.613151,-7.133778
0.260000,-2.314930,-1.489093,1.454998,0.157205,0.040695,0.007331,1.387515,0.484499,0.041239,5.120976,1.673748,-0.121687,-27.371786,-9.775658,-7.168112
0.270000,-2.313288,-1.488662,1.455074,0.171332,0.045622,0.007736,1.437339,0.500744,0.039664,4.842237,1.575076,-0.193283,-28.351435,-9.961629,-7.140727
0.280000,-2.311502,-1.488180,1.455153,0.185942,0.050707,0.008122,1.484329,0.515994,0.037375,4.554435,1.474479,-0.264297,-29.184667,-10.158389,-7.051938
0.290000,-2.309567,-1.487647,1.455236,0.201009,0.055939,0.008481,1.528402,0.530227,0.034382,4.259023,1.371914,-0.334118,-29.874087,-10.353263,-6.902057
0.300000,-2.307480,-1.487061,1.455322,0.216501,0.061308,0.008807,1.569489,0.543426,0.030699,3.957424,1.267463,-0.402136,-30.422297,-10.533578,-6.691400
0.310000,-2.305236,-1.486420,1.455412,0.232388,0.066805,0.009093,1.607526,0.555532,0.026336,3.650198,1.157706,-0.468778,-30.810662,-10.595042,-6.394179
0.320000,-2.302831,-1.485724,1.455504,0.248641,0.072416,0.009332,1.642482,0.566578,0.021334,3.340708,1.051567,-0.530994,-31.065625,-10.627816,-6.040006
0.330000,-2.300262,-1.484972,1.455598,0.265228,0.078133,0.009518,1.674334,0.576562,0.015729,3.029313,0.945250,-0.589400,-31.192391,-10.630444,-5.632390
0.340000,-2.297525,-1.484161,1.455694,0.282117,0.083944,0.009645,1.703067,0.585484,0.009560,2.717270,0.839064,-0.643476,-31.196163,-10.601469,-5.174841
0.350000,-2.294619,-1.483293,1.455791,0.299279,0.089839,0.009707,1.728681,0.593345,0.002875,2.405782,0.733331,-0.692742,-31.082147,-10.539435,-4.670868
0.360000,-2.291539,-1.482364,1.455888,0.316681,0.095807,0.009701,1.751184,0.600143,-0.004284,2.095680,0.627451,-0.737451,-30.847417,-10.419179,-4.106273
0.370000,-2.288284,-1.481376,1.455985,0.334292,0.101838,0.009621,1.770604,0.605899,-0.011854,1.788826,0.523999,-0.775534,-30.506302,-10.265854,-3.504443
0.380000,-2.284853,-1.480327,1.456080,0.352083,0.107922,0.009463,1.786974,0.610628,-0.019775,1.485888,0.422240,-0.807435,-30.065000,-10.080909,-2.871058
0.390000,-2.281242,-1.479218,1.456174,0.370022,0.114048,0.009224,1.800338,0.614350,-0.027982,1.187839,0.322482,-0.832868,-29.529712,-9.865790,-2.211795
0.400000,-2.277452,-1.478046,1.456265,0.388080,0.120206,0.008902,1.810750,0.617086,-0.036410,0.895587,0.225020,-0.851604,-28.906637,-9.621944,-1.532333
0.410000,-2.273480,-1.476813,1.456352,0.406227,0.126386,0.008495,1.818272,0.618857,-0.044992,0.610001,0.129955,-0.863629,-28.202555,-9.346293,-0.834256
0.420000,-2.269327,-1.475519,1.456434,0.424436,0.132580,0.008002,1.822975,0.619694,-0.053659,0.331813,0.037976,-0.868444,-27.423014,-9.045363,-0.127839
0.430000,-2.264992,-1.474162,1.456511,0.442677,0.138777,0.007422,1.824936,0.619627,-0.062338,0.061772,-0.050875,-0.866178,-26.574141,-8.721156,0.580738
0.440000,-2.260474,-1.472743,1.456582,0.460925,0.144969,0.006756,1.824240,0.618688,-0.070959,-0.199459,-0.136376,-0.856842,-25.662066,-8.375671,1.285295
0.450000,-2.255773,-1.471263,1.456646,0.479154,0.151148,0.006003,1.820978,0.616911,-0.079451,-0.451279,-0.218324,-0.840507,-24.692915,-8.010911,1.979654
0.460000,-2.250891,-1.469720,1.456702,0.497337,0.157305,0.005167,1.815249,0.614334,-0.087742,-0.693017,-0.296526,-0.816938,-23.676125,-7.629157,2.648380
0.470000,-2.245827,-1.468117,1.456749,0.515451,0.163432,0.004249,1.807152,0.610994,-0.095768,-0.924503,-0.370844,-0.787197,-22.614112,-7.232095,3.295681
0.480000,-2.240582,-1.466452,1.456787,0.533472,0.169522,0.003253,1.796795,0.606931,-0.103465,-1.145167,-0.441123,-0.751112,-21.512599,-6.821692,3.916507
0.490000,-2.235158,-1.464726,1.456814,0.551379,0.175569,0.002181,1.784286,0.602185,-0.110770,-1.354643,-0.507240,-0.708972,-20.377309,-6.399914,4.505813
0.500000,-2.229555,-1.462941,1.456830,0.569151,0.181564,0.001039,1.769740,0.596800,-0.117625,-1.552620,-0.569090,-0.661118,-19.213967,-5.968728,5.058551
0.510000,-2.223775,-1.461095,1.456835,0.586768,0.187503,-0.000170,1.753275,0.590819,-0.123967,-1.738654,-0.626527,-0.607209,-18.033190,-5.531675,5.551224
0.520000,-2.217820,-1.459191,1.456827,0.604211,0.193378,-0.001439,1.735007,0.584284,-0.129754,-1.913008,-0.679634,-0.549418,-16.835207,-5.088954,5.999493
0.530000,-2.211691,-1.457228,1.456806,0.621462,0.199186,-0.002763,1.715055,0.577241,-0.134941,-2.075318,-0.728293,-0.487377,-15.625142,-4.642340,6.400573
0.540000,-2.205391,-1.455207,1.456771,0.638507,0.204922,-0.004135,1.693541,0.569733,-0.139489,-2.225488,-0.772474,-0.421573,-14.408120,-4.193607,6.751673
0.550000,-2.198922,-1.453130,1.456723,0.655328,0.210580,-0.005550,1.670586,0.561806,-0.143362,-2.363474,-0.812164,-0.352519,-13.189264,-3.744528,7.050007
0.560000,-2.192286,-1.450996,1.456660,0.671914,0.216157,-0.007001,1.646315,0.553506,-0.146521,-2.488997,-0.847273,-0.279898,-11.980930,-3.299321,7.271076
0.570000,-2.185485,-1.448807,1.456583,0.688251,0.221649,-0.008479,1.620846,0.544876,-0.148953,-2.602795,-0.878051,-0.206314,-10.780125,-2.857017,7.436461
0.580000,-2.178522,-1.446563,1.456491,0.704327,0.227053,-0.009977,1.594299,0.535960,-0.150642,-2.704639,-0.904428,-0.131355,-9.591088,-2.419092,7.546033
0.590000,-2.171399,-1.444266,1.456383,0.720133,0.232367,-0.011489,1.566793,0.526802,-0.151578,-2.794670,-0.926453,-0.055580,-8.418057,-1.987019,7.599663
0.600000,-2.164120,-1.441916,1.456261,0.735660,0.237589,-0.013006,1.538444,0.517445,-0.151753,-2.873068,-0.944192,0.020451,-7.265270,-1.562273,7.597222
0.610000,-2.156687,-1.439515,1.456123,0.750900,0.242715,-0.014522,1.509374,0.507933,-0.151161,-2.939668,-0.957595,0.096938,-6.146799,-1.149680,7.519354
0.620000,-2.149103,-1.437062,1.455970,0.765845,0.247747,-0.016027,1.479688,0.498307,-0.149818,-2.995657,-0.967069,0.171517,-5.055846,-0.746953,7.387511
0.630000,-2.141371,-1.434560,1.455803,0.780492,0.252681,-0.017516,1.449496,0.488605,-0.147736,-3.040886,-0.972570,0.244516,-3.995445,-0.355158,7.203917
0.640000,-2.133494,-1.432009,1.455620,0.794834,0.257519,-0.018979,1.418905,0.478868,-0.144935,-3.075677,-0.974212,0.315430,-2.968631,0.024643,6.970797
0.650000,-2.125475,-1.429410,1.455423,0.808869,0.262259,-0.020412,1.388016,0.469133,-0.141436,-3.100381,-0.972121,0.383774,-1.978439,0.391383,6.690375
0.660000,-2.117318,-1.426764,1.455212,0.822594,0.266901,-0.021806,1.356935,0.459439,-0.137264,-3.114926,-0.966274,0.449588,-1.039340,0.740020,6.352224
0.670000,-2.109024,-1.424072,1.454987,0.836007,0.271448,-0.023155,1.325749,0.449819,-0.132456,-3.120795,-0.957192,0.511246,-0.141532,1.073956,5.972772
0.680000,-2.100598,-1.421335,1.454749,0.849108,0.275898,-0.024453,1.294548,0.440306,-0.127052,-3.117899,-0.944846,0.568918,0.713353,1.392614,5.555790
0.690000,-2.092043,-1.418555,1.454498,0.861898,0.280254,-0.025694,1.263418,0.430933,-0.121092,-3.106676,-0.929392,0.622249,1.523678,1.695415,5.105054
0.700000,-2.083362,-1.415731,1.454235,0.874377,0.284517,-0.026873,1.232441,0.421728,-0.114623,-3.087580,-0.910993,0.670920,2.287812,1.981784,4.624337
0.710000,-2.074557,-1.412865,1.453961,0.886548,0.288689,-0.027985,1.201696,0.412724,-0.107689,-3.060639,-0.889656,0.714821,2.992979,2.247163,4.113051
0.720000,-2.065632,-1.409957,1.453676,0.898412,0.292773,-0.029026,1.171251,0.403944,-0.100344,-3.027383,-0.865929,0.753302,3.650050,2.495441,3.579868
0.730000,-2.056589,-1.407009,1.453381,0.909974,0.296769,-0.029991,1.141170,0.395413,-0.092641,-2.987799,-0.839804,0.786360,4.258754,2.726531,3.029093
0.740000,-2.047433,-1.404022,1.453076,0.921237,0.300682,-0.030878,1.111514,0.387155,-0.084635,-2.942370,-0.811456,0.813840,4.818821,2.940341,2.465036
0.750000,-2.038166,-1.400996,1.452763,0.932206,0.304513,-0.031683,1.082340,0.379191,-0.076383,-2.891585,-0.781055,0.835631,5.329981,3.136782,1.892005
0.760000,-2.028790,-1.397932,1.452443,0.942885,0.308267,-0.032405,1.053703,0.371542,-0.067943,-2.835579,-0.748646,0.851531,5.782987,3.312441,1.317669
0.770000,-2.019309,-1.394831,1.452116,0.953282,0.311945,-0.033041,1.025643,0.364224,-0.059371,-2.775686,-0.714715,0.861832,6.187645,3.470959,0.742564
0.780000,-2.009725,-1.391693,1.451782,0.963400,0.315552,-0.033592,0.998202,0.357252,-0.050726,-2.711985,-0.679283,0.866393,6.544784,3.612653,0.170584
0.790000,-2.000042,-1.388520,1.451444,0.973248,0.319091,-0.034056,0.971414,0.350642,-0.042063,-2.644946,-0.642517,0.865267,6.855234,3.737841,-0.394372
0.800000,-1.990261,-1.385312,1.451102,0.982831,0.322566,-0.034433,0.945312,0.344406,-0.033439,-2.575033,-0.604581,0.858542,7.119823,3.846840,-0.948408
0.810000,-1.980386,-1.382069,1.450756,0.992156,0.325981,-0.034725,0.919924,0.338555,-0.024914,-2.502476,-0.565547,0.845995,7.333725,3.937786,-1.478728
0.820000,-1.970419,-1.378792,1.450407,1.001232,0.329339,-0.034932,0.895269,0.333098,-0.016536,-2.428251,-0.525778,0.828629,7.504117,4.013445,-1.991426
0.830000,-1.960362,-1.375482,1.450057,1.010064,0.332644,-0.035056,0.871364,0.328042,-0.008358,-2.352533,-0.485327,0.806235,7.632521,4.074402,-2.483695
0.840000,-1.950218,-1.372140,1.449707,1.018662,0.335901,-0.035100,0.848222,0.323393,-0.000428,-2.275735,-0.444337,0.779032,7.720459,4.121242,-2.952727
0.850000,-1.939990,-1.368764,1.449356,1.027031,0.339113,-0.035066,0.825852,0.319156,0.007208,-2.198254,-0.402947,0.747267,7.769452,4.154548,-3.395718
0.860000,-1.929679,-1.365357,1.449005,1.035181,0.342285,-0.034957,0.804259,0.315335,0.014498,-2.120384,-0.361255,0.710757,7.778819,4.174038,-3.798300
0.870000,-1.919287,-1.361919,1.448657,1.043119,0.345421,-0.034777,0.783444,0.311932,0.021410,-2.042698,-0.319469,0.670886,7.752554,4.181270,-4.170642
0.880000,-1.908817,-1.358449,1.448310,1.050853,0.348525,-0.034530,0.763403,0.308946,0.027904,-1.965445,-0.277668,0.627449,7.692450,4.176935,-4.511352
0.890000,-1.898270,-1.354948,1.447966,1.058390,0.351602,-0.034220,0.744132,0.306378,0.033948,-1.888956,-0.235966,0.580769,7.600298,4.161724,-4.819040
0.900000,-1.887650,-1.351417,1.447626,1.065738,0.354654,-0.033853,0.725621,0.304226,0.039510,-1.813540,-0.194468,0.531183,7.477891,4.136326,-5.092313
0.910000,-1.876956,-1.347855,1.447289,1.072905,0.357688,-0.033432,0.707857,0.302488,0.044558,-1.739509,-0.153281,0.478588,7.327441,4.101675,-5.318307
0.920000,-1.866192,-1.344263,1.446957,1.079897,0.360706,-0.032963,0.690825,0.301159,0.049075,-1.667099,-0.112475,0.424424,7.150267,4.058190,-5.508508
0.930000,-1.855359,-1.340641,1.446630,1.086723,0.363712,-0.032452,0.674508,0.300236,0.053041,-1.596587,-0.072144,0.368537,6.948109,4.006533,-5.662932
0.940000,-1.844458,-1.336989,1.446309,1.093390,0.366712,-0.031904,0.658886,0.299714,0.056441,-1.528215,-0.032369,0.311285,6.722706,3.947363,-5.781593
0.950000,-1.833492,-1.333307,1.445992,1.099903,0.369708,-0.031325,0.643936,0.299587,0.059263,-1.462205,0.006780,0.253024,6.475800,3.881344,-5.864503
0.960000,-1.822461,-1.329595,1.445682,1.106271,0.372705,-0.030721,0.629633,0.299847,0.061495,-1.398837,0.045199,0.193745,6.210954,3.810112,-5.902360
0.970000,-1.811367,-1.325853,1.445378,1.112498,0.375706,-0.030097,0.615950,0.300488,0.063137,-1.338128,0.082920,0.134676,5.927860,3.733233,-5.905636
0.980000,-1.800211,-1.322081,1.445080,1.118592,0.378716,-0.029460,0.602860,0.301503,0.064189,-1.280335,0.119846,0.075743,5.628036,3.651248,-5.875485
0.990000,-1.788995,-1.318279,1.444789,1.124557,0.381737,-0.028815,0.590333,0.302883,0.064654,-1.225618,0.155930,0.017274,5.312998,3.564698,-5.813063
1.000000,-1.777720,-1.314446,1.444504,1.130400,0.384774,-0.028169,0.578337,0.304619,0.064537,-1.174121,0.191127,-0.040414,4.984262,3.474124,-5.719525
1.010000,-1.766388,-1.310583,1.444225,1.136126,0.387831,-0.027526,0.566839,0.306701,0.063847,-1.126055,0.225349,-0.097253,4.645409,3.381368,-5.590046
1.020000,-1.754998,-1.306689,1.443953,1.141739,0.390910,-0.026894,0.555805,0.309122,0.062597,-1.081341,0.258686,-0.152388,4.295639,3.285513,-5.432493
1.030000,-1.743553,-1.302765,1.443688,1.147243,0.394014,-0.026276,0.545200,0.311872,0.060804,-1.040175,0.291050,-0.205816,3.936218,3.186940,-5.248752
1.040000,-1.732054,-1.298809,1.443428,1.152644,0.397148,-0.025679,0.534989,0.314940,0.058487,-1.002645,0.322417,-0.257282,3.568409,3.086031,-5.040710
1.050000,-1.720501,-1.294822,1.443174,1.157944,0.400314,-0.025108,0.525135,0.318317,0.055666,-0.968830,0.352764,-0.306555,3.193476,2.983170,-4.810254
1.060000,-1.708895,-1.290803,1.442926,1.163148,0.403515,-0.024567,0.515599,0.321991,0.052363,-0.938857,0.382024,-0.353511,2.814242,2.880021,-4.556959
1.070000,-1.697238,-1.286751,1.442682,1.168257,0.406755,-0.024062,0.506345,0.325954,0.048605,-0.912631,0.410303,-0.397736,2.430222,2.775527,-4.285307
1.080000,-1.685530,-1.282667,1.442444,1.173275,0.410035,-0.023597,0.497334,0.330194,0.044418,-0.890265,0.437531,-0.439163,2.042490,2.669912,-3.997468
1.090000,-1.673773,-1.278550,1.442210,1.178204,0.413360,-0.023175,0.488527,0.334701,0.039831,-0.871790,0.463698,-0.477639,1.652120,2.563403,-3.695611
1.100000,-1.661967,-1.274400,1.441980,1.183046,0.416730,-0.022801,0.479885,0.339464,0.034875,-0.857227,0.488797,-0.513035,1.260185,2.456224,-3.381907
1.110000,-1.650112,-1.270216,1.441754,1.187803,0.420150,-0.022479,0.471369,0.344473,0.029582,-0.846621,0.512780,-0.545205,0.868601,2.349653,-3.059527
1.120000,-1.638211,-1.265997,1.441531,1.192474,0.423621,-0.022211,0.462940,0.349716,0.023982,-0.839891,0.535742,-0.574156,0.477496,2.242734,-2.729517
1.130000,-1.626263,-1.261743,1.441310,1.197062,0.427145,-0.022000,0.454558,0.355184,0.018110,-0.837066,0.557633,-0.599777,0.087841,2.135564,-2.393924
1.140000,-1.614270,-1.257454,1.441091,1.201565,0.430725,-0.021849,0.446185,0.360865,0.011998,-0.838126,0.578453,-0.622023,-0.299394,2.028240,-2.054796
1.150000,-1.602232,-1.253128,1.440873,1.205985,0.434363,-0.021761,0.437783,0.366750,0.005681,-0.843043,0.598198,-0.640868,-0.683237,1.920857,-1.714180
1.160000,-1.590150,-1.248766,1.440655,1.210321,0.438061,-0.021736,0.429312,0.372826,-0.000807,-0.851790,0.616842,-0.656170,-1.062391,1.814206,-1.377617
1.170000,-1.578026,-1.244367,1.440438,1.214571,0.441820,-0.021778,0.420734,0.379083,-0.007432,-0.864288,0.634451,-0.668271,-1.436252,1.707605,-1.043233
1.180000,-1.565859,-1.239930,1.440219,1.218735,0.445643,-0.021885,0.412013,0.385511,-0.014161,-0.880494,0.650995,-0.677047,-1.803891,1.601066,-0.712647
1.190000,-1.553651,-1.235454,1.440000,1.222811,0.449531,-0.022061,0.403112,0.392099,-0.020962,-0.900342,0.666473,-0.682542,-2.164377,1.494601,-0.387478
1.200000,-1.541403,-1.230939,1.439778,1.226796,0.453485,-0.022305,0.393995,0.398837,-0.027801,-0.923754,0.680887,-0.684820,-2.516779,1.388223,-0.069346
1.210000,-1.529116,-1.226384,1.439553,1.230690,0.457508,-0.022617,0.384625,0.405713,-0.034646,-0.950659,0.694224,-0.683763,-2.859876,1.282284,0.235196
1.220000,-1.516790,-1.221789,1.439325,1.234488,0.461600,-0.022998,0.374970,0.412718,-0.041466,-0.980932,0.706518,-0.679928,-3.193063,1.176412,0.530067
1.230000,-1.504426,-1.217152,1.439093,1.238188,0.465763,-0.023446,0.364996,0.419840,-0.048234,-1.014484,0.717753,-0.673197,-3.515447,1.070579,0.814250
1.240000,-1.492026,-1.212473,1.438856,1.241787,0.469997,-0.023962,0.354670,0.427069,-0.054921,-1.051202,0.727929,-0.663682,-3.826133,0.964753,1.086732
1.250000,-1.479591,-1.207752,1.438614,1.245280,0.474304,-0.024544,0.343962,0.434395,-0.061499,-1.090965,0.737048,-0.651505,-4.124226,0.858905,1.346496
1.260000,-1.467121,-1.202987,1.438365,1.248665,0.478685,-0.025192,0.332841,0.441807,-0.067940,-1.133670,0.745106,-0.636589,-4.408111,0.753027,1.587244
1.270000,-1.454618,-1.198178,1.438110,1.251936,0.483141,-0.025903,0.321279,0.449294,-0.074223,-1.179111,0.752107,-0.619571,-4.677701,0.647064,1.813890
1.280000,-1.442083,-1.193324,1.437847,1.255089,0.487672,-0.026676,0.309250,0.456845,-0.080325,-1.227174,0.758047,-0.600359,-4.932191,0.540984,2.026067
1.290000,-1.429517,-1.188424,1.437576,1.258119,0.492278,-0.027508,0.296727,0.464451,-0.086224,-1.277702,0.762926,-0.579099,-5.170773,0.434752,2.223408
1.300000,-1.416921,-1.183478,1.437296,1.261021,0.496961,-0.028399,0.283688,0.472100,-0.091900,-1.330533,0.766742,-0.555942,-5.392641,0.328337,2.405542
1.310000,-1.404297,-1.178484,1.437008,1.263791,0.501720,-0.029346,0.270109,0.479783,-0.097335,-1.385554,0.769504,-0.530856,-5.595543,0.221396,2.567437
1.320000,-1.391646,-1.173443,1.436709,1.266422,0.506556,-0.030345,0.255970,0.487487,-0.102512,-1.442448,0.771183,-0.504436,-5.780294,0.114242,2.713962
1.330000,-1.378969,-1.168353,1.436401,1.268908,0.511470,-0.031395,0.241254,0.495203,-0.107419,-1.501097,0.771789,-0.476627,-5.946265,0.006883,2.845319
1.340000,-1.366268,-1.163214,1.436081,1.271245,0.516460,-0.032493,0.225943,0.502919,-0.112041,-1.561309,0.771320,-0.447579,-6.092827,-0.100677,2.961712
1.350000,-1.353544,-1.158024,1.435751,1.273425,0.521528,-0.033635,0.210023,0.510626,-0.116367,-1.622887,0.769774,-0.417442,-6.219350,-0.208432,3.063343
1.360000,-1.340800,-1.152783,1.435408,1.275443,0.526673,-0.034819,0.193481,0.518311,-0.120385,-1.685716,0.767176,-0.386229,-6.322964,-0.317027,3.147082
1.370000,-1.328036,-1.147490,1.435054,1.277293,0.531894,-0.036042,0.176306,0.525965,-0.124089,-1.749376,0.763462,-0.354398,-6.405555,-0.425728,3.216874
1.380000,-1.315255,-1.142145,1.434688,1.278967,0.537192,-0.037300,0.158491,0.533577,-0.127471,-1.813756,0.758661,-0.321936,-6.466766,-0.534450,3.273332
1.390000,-1.302457,-1.136746,1.434308,1.280460,0.542566,-0.038590,0.140029,0.541135,-0.130526,-1.878639,0.752774,-0.288974,-6.506244,-0.643108,3.317065
1.400000,-1.289646,-1.131293,1.433916,1.281766,0.548015,-0.039909,0.120917,0.548629,-0.133249,-1.943807,0.745800,-0.255635,-6.523634,-0.751619,3.348686
1.410000,-1.276823,-1.125785,1.433510,1.282877,0.553538,-0.041254,0.101152,0.556048,-0.135637,-2.009152,0.737783,-0.221975,-6.515670,-0.860927,3.367207
1.420000,-1.263989,-1.120222,1.433090,1.283787,0.559135,-0.042621,0.080735,0.563381,-0.137688,-2.074175,0.728629,-0.188255,-6.485263,-0.969791,3.375034
1.430000,-1.251148,-1.114602,1.432657,1.284489,0.564805,-0.044006,0.059669,0.570617,-0.139402,-2.138782,0.718389,-0.154507,-6.432415,-1.078001,3.372975
1.440000,-1.238300,-1.108926,1.432210,1.284978,0.570547,-0.045408,0.037961,0.577745,-0.140778,-2.202749,0.707072,-0.120826,-6.357126,-1.185346,3.361837
1.450000,-1.225449,-1.103191,1.431749,1.285246,0.576360,-0.046821,0.015617,0.584755,-0.141819,-2.265850,0.694686,-0.087298,-6.259398,-1.291615,3.342428
1.460000,-1.212596,-1.097398,1.431274,1.285288,0.582242,-0.048243,-0.007354,0.591636,-0.142525,-2.327995,0.681302,-0.054011,-6.135876,-1.398081,3.315789
1.470000,-1.199744,-1.091546,1.430784,1.285097,0.588192,-0.049670,-0.030938,0.598377,-0.142900,-2.388644,0.666796,-0.021015,-5.990328,-1.502867,3.282465
1.480000,-1.186895,-1.085634,1.430280,1.284667,0.594209,-0.051100,-0.055121,0.604968,-0.142947,-2.447729,0.651252,0.011618,-5.823167,-1.605582,3.243234
1.490000,-1.174051,-1.079662,1.429762,1.283993,0.600291,-0.052528,-0.079887,0.611399,-0.142669,-2.505037,0.634693,0.043833,-5.634803,-1.705832,3.198875
1.500000,-1.161216,-1.073628,1.429230,1.283068,0.606436,-0.053952,-0.105215,0.617659,-0.142072,-2.560356,0.617145,0.075581,-5.425649,-1.803225,3.150166
1.510000,-1.148391,-1.067533,1.428683,1.281887,0.612643,-0.055368,-0.131088,0.623739,-0.141160,-2.613617,0.598711,0.106751,-5.192701,-1.899200,3.099734
1.520000,-1.135579,-1.061375,1.428123,1.280444,0.618910,-0.056774,-0.157480,0.629630,-0.139938,-2.664297,0.579255,0.137483,-4.940206,-1.991309,3.046283
1.530000,-1.122783,-1.055154,1.427548,1.278736,0.625235,-0.058166,-0.184365,0.635321,-0.138412,-2.712359,0.558900,0.167668,-4.668993,-2.078935,2.990367
1.540000,-1.110005,-1.048870,1.426959,1.276756,0.631616,-0.059541,-0.211717,0.640805,-0.136587,-2.757618,0.537694,0.197284,-4.379893,-2.161462,2.932538
1.550000,-1.097249,-1.042522,1.426357,1.274500,0.638051,-0.060897,-0.239508,0.646073,-0.134468,-2.799900,0.515690,0.226315,-4.073737,-2.238272,2.873348
1.560000,-1.084516,-1.036109,1.425741,1.271964,0.644537,-0.062230,-0.267706,0.651117,-0.132064,-2.839149,0.492998,0.254642,-3.748572,-2.309985,2.816046
1.570000,-1.071810,-1.029631,1.425113,1.269144,0.651072,-0.063537,-0.296279,0.655930,-0.129377,-2.874945,0.469569,0.282513,-3.408352,-2.374597,2.758158
1.580000,-1.059134,-1.023087,1.424471,1.266037,0.657655,-0.064816,-0.325194,0.660506,-0.126415,-2.907269,0.445533,0.309804,-3.054248,-2.431339,2.699907
1.590000,-1.046491,-1.016478,1.423816,1.262640,0.664282,-0.066065,-0.354413,0.664839,-0.123183,-2.935988,0.420971,0.336511,-2.687430,-2.479445,2.641516
1.600000,-1.033882,-1.009802,1.423150,1.258948,0.670951,-0.067279,-0.383901,0.668924,-0.119687,-2.960979,0.395975,0.362634,-2.309069,-2.518144,2.583206
1.610000,-1.021313,-1.003059,1.422471,1.254961,0.677659,-0.068458,-0.413620,0.672757,-0.115934,-2.982190,0.370616,0.388079,-1.918945,-2.546004,2.527654
1.620000,-1.008784,-0.996248,1.421781,1.250675,0.684405,-0.069597,-0.443531,0.676336,-0.111927,-2.999390,0.345061,0.413079,-1.519791,-2.563004,2.472327
1.630000,-0.996300,-0.989370,1.421079,1.246090,0.691185,-0.070695,-0.473595,0.679658,-0.107674,-3.012560,0.319394,0.437526,-1.112949,-2.568457,2.417149
1.640000,-0.983863,-0.982424,1.420367,1.241203,0.697997,-0.071750,-0.503769,0.682724,-0.103179,-3.021628,0.293733,0.461422,-0.699759,-2.561677,2.362040
1.650000,-0.971477,-0.975410,1.419644,1.236014,0.704839,-0.072758,-0.534013,0.685533,-0.098447,-3.026538,0.268204,0.484767,-0.281564,-2.541978,2.306923
1.660000,-0.959144,-0.968328,1.418912,1.230522,0.711707,-0.073718,-0.564286,0.688088,-0.093486,-3.027238,0.242831,0.507497,0.140075,-2.505946,2.253301
1.670000,-0.946868,-0.961176,1.418170,1.224728,0.718600,-0.074627,-0.594544,0.690391,-0.088299,-3.023719,0.218010,0.529761,0.564064,-2.455956,2.199321
1.680000,-0.934650,-0.953956,1.417419,1.218632,0.725514,-0.075483,-0.624746,0.692450,-0.082893,-3.015954,0.193760,0.551482,0.989089,-2.391654,2.144711
1.690000,-0.922496,-0.946666,1.416661,1.212234,0.732448,-0.076284,-0.654849,0.694269,-0.077271,-3.003938,0.170226,0.572652,1.413835,-2.312687,2.089200
1.700000,-0.910407,-0.939307,1.415894,1.205535,0.739399,-0.077028,-0.684811,0.695857,-0.071441,-2.987682,0.147556,0.593262,1.836988,-2.218704,2.032516
1.710000,-0.898386,-0.931878,1.415120,1.198538,0.746364,-0.077712,-0.714588,0.697222,-0.065408,-2.967147,0.125746,0.613273,2.255681,-2.105400,1.975012
1.720000,-0.886437,-0.924379,1.414340,1.191244,0.753342,-0.078335,-0.744140,0.698376,-0.059178,-2.942513,0.105322,0.632728,2.670343,-1.976858,1.915716
1.730000,-0.874562,-0.916811,1.413554,1.183656,0.760331,-0.078895,-0.773424,0.699333,-0.052756,-2.913757,0.086259,0.651580,3.079848,-1.833208,1.854279
1.740000,-0.862765,-0.909173,1.412762,1.175777,0.767329,-0.079390,-0.802401,0.700106,-0.046148,-2.880937,0.068708,0.669805,3.483072,-1.674581,1.790352
1.750000,-0.851048,-0.901464,1.411966,1.167609,0.774333,-0.079818,-0.831030,0.700712,-0.039362,-2.844120,0.052817,0.687378,3.878892,-1.501109,1.723588
1.760000,-0.839414,-0.893686,1.411166,1.159157,0.781342,-0.080177,-0.859269,0.701167,-0.032403,-2.803293,0.038567,0.704276,4.263783,-1.308674,1.653410
1.770000,-0.827866,-0.885837,1.410363,1.150425,0.788356,-0.080465,-0.887083,0.701490,-0.025279,-2.758769,0.026501,0.720444,4.639314,-1.102176,1.579725
1.780000,-0.816406,-0.877919,1.409557,1.141417,0.795372,-0.080682,-0.914433,0.701704,-0.017997,-2.710540,0.016568,0.735857,5.004654,-0.882265,1.502214
1.790000,-0.805038,-0.869930,1.408749,1.132138,0.802389,-0.080825,-0.941282,0.701829,-0.010564,-2.658713,0.008898,0.750475,5.358973,-0.649593,1.420556
1.800000,-0.793764,-0.861871,1.407941,1.122594,0.809408,-0.080892,-0.967595,0.701890,-0.002990,-2.603400,0.003616,0.764254,5.701440,-0.404812,1.334432
1.810000,-0.782587,-0.853742,1.407132,1.112788,0.816427,-0.080884,-0.993337,0.701908,0.004718,-2.544618,0.000691,0.777182,6.028486,-0.144799,1.242639
1.820000,-0.771509,-0.845542,1.406323,1.102729,0.823446,-0.080798,-1.018477,0.701913,0.012551,-2.482752,0.000587,0.789129,6.342354,0.125559,1.145846
1.830000,-0.760533,-0.837273,1.405516,1.092421,0.830465,-0.080632,-1.042982,0.701929,0.020498,-2.417816,0.003233,0.800082,6.642548,0.405150,1.043840
1.840000,-0.749662,-0.828933,1.404711,1.081871,0.837485,-0.080387,-1.066823,0.701987,0.028549,-2.349949,0.008717,0.809988,6.928572,0.692860,0.936410
1.850000,-0.738897,-0.820523,1.403909,1.071087,0.844505,-0.080061,-1.089972,0.702113,0.036694,-2.279294,0.017113,0.818791,7.199932,0.987577,0.823343
1.860000,-0.728241,-0.812043,1.403110,1.060074,0.851528,-0.079653,-1.112399,0.702338,0.044921,-2.205898,0.028375,0.826485,7.453534,1.291044,0.703166
1.870000,-0.717696,-0.803493,1.402316,1.048841,0.858553,-0.079163,-1.134082,0.702691,0.053219,-2.130158,0.042822,0.832891,7.691799,1.598942,0.577082
1.880000,-0.707265,-0.794872,1.401527,1.037395,0.865582,-0.078589,-1.154995,0.703204,0.061575,-2.052113,0.060363,0.838007,7.914547,1.909808,0.445031
1.890000,-0.696949,-0.786181,1.400744,1.025744,0.872617,-0.077931,-1.175117,0.703909,0.069975,-1.971920,0.081023,0.841772,8.121602,2.222179,0.306955
1.900000,-0.686750,-0.777420,1.399969,1.013896,0.879661,-0.077189,-1.194427,0.704835,0.078406,-1.889734,0.104807,0.844125,8.312785,2.534592,0.162797
1.910000,-0.676671,-0.768588,1.399201,1.001858,0.886715,-0.076363,-1.212904,0.706015,0.086853,-1.805630,0.131648,0.845059,8.485720,2.847153,0.011177
1.920000,-0.666714,-0.759685,1.398442,0.989640,0.893782,-0.075452,-1.230534,0.707479,0.095302,-1.719975,0.161670,0.844388,8.642698,3.156639,-0.146481
1.930000,-0.656879,-0.750712,1.397692,0.977250,0.900866,-0.074457,-1.247299,0.709258,0.103735,-1.632829,0.194765,0.842110,8.783810,3.461394,-0.310073
1.940000,-0.647169,-0.741668,1.396953,0.964697,0.907968,-0.073377,-1.263186,0.711384,0.112138,-1.544351,0.230877,0.838167,8.909147,3.759763,-0.479496
1.950000,-0.637586,-0.732553,1.396225,0.951990,0.915095,-0.072214,-1.278182,0.713886,0.120493,-1.454699,0.269933,0.832501,9.018801,4.050092,-0.654646
1.960000,-0.628130,-0.723366,1.395509,0.939137,0.922248,-0.070968,-1.292276,0.716792,0.128783,-1.363959,0.311841,0.825099,9.111133,4.330866,-0.836524
1.970000,-0.618803,-0.714107,1.394806,0.926147,0.929432,-0.069639,-1.305458,0.720132,0.136989,-1.272450,0.356506,0.815802,9.188177,4.600273,-1.023787
1.980000,-0.609607,-0.704777,1.394116,0.913030,0.936652,-0.068228,-1.317722,0.723931,0.145092,-1.180245,0.403803,0.804606,9.250236,4.856641,-1.216197
1.990000,-0.600543,-0.695374,1.393441,0.899796,0.943912,-0.066737,-1.329061,0.728216,0.153074,-1.087494,0.453590,0.791461,9.297613,5.098296,-1.413517
2.000000,-0.591612,-0.685899,1.392782,0.886452,0.951218,-0.065167,-1.339471,0.733011,0.160915,-0.994341,0.505714,0.776320,9.330611,5.323568,-1.615506
2.010000,-0.582815,-0.676350,1.392138,0.873009,0.958574,-0.063520,-1.348947,0.738338,0.168594,-0.900887,0.560050,0.759166,9.348478,5.529547,-1.822666
2.020000,-0.574152,-0.666727,1.391512,0.859476,0.965986,-0.061796,-1.357488,0.744218,0.176091,-0.807370,0.616295,0.739886,9.352702,5.715949,-2.033929
2.030000,-0.565625,-0.657030,1.390903,0.845863,0.973460,-0.059998,-1.365094,0.750670,0.183385,-0.713877,0.674299,0.718475,9.343716,5.881254,-2.248965
2.040000,-0.557235,-0.647258,1.390312,0.832178,0.981002,-0.058129,-1.371766,0.757709,0.190454,-0.620538,0.733844,0.694895,9.321953,6.023941,-2.467447
2.050000,-0.548982,-0.637410,1.389740,0.818431,0.988616,-0.056190,-1.377506,0.765351,0.197276,-0.527479,0.794697,0.669115,9.287847,6.142489,-2.689044
2.060000,-0.540867,-0.627485,1.389188,0.804631,0.996311,-0.054184,-1.382317,0.773608,0.203829,-0.434822,0.856715,0.641122,9.241863,6.232688,-2.913865
2.070000,-0.532889,-0.617483,1.388657,0.790787,1.004091,-0.052115,-1.386204,0.782488,0.210090,-0.342681,0.919382,0.610850,9.184397,6.296036,-3.141091
2.080000,-0.525051,-0.607403,1.388146,0.776910,1.011963,-0.049984,-1.389173,0.791997,0.216038,-0.251171,0.982542,0.578294,9.115876,6.331343,-3.370338
2.090000,-0.517351,-0.597244,1.387657,0.763007,1.019933,-0.047795,-1.391230,0.802139,0.221649,-0.160399,1.045911,0.543437,9.036729,6.337416,-3.601226
2.100000,-0.509791,-0.587004,1.387191,0.749088,1.028007,-0.045552,-1.392384,0.812915,0.226899,-0.070470,1.109189,0.506265,8.947384,6.313065,-3.833371
2.110000,-0.502370,-0.576683,1.386747,0.735162,1.036193,-0.043258,-1.392643,0.824323,0.231766,0.018475,1.172221,0.466789,8.849306,6.253214,-4.066952
2.120000,-0.495088,-0.566280,1.386326,0.721238,1.044496,-0.040918,-1.392018,0.836357,0.236227,0.106438,1.234319,0.424950,8.741760,6.161031,-4.300957
2.130000,-0.487945,-0.555793,1.385928,0.707325,1.052922,-0.038535,-1.390518,0.849006,0.240258,0.193280,1.295331,0.380770,8.625048,6.035802,-4.534935
2.140000,-0.480941,-0.545221,1.385555,0.693431,1.061478,-0.036114,-1.388156,0.862259,0.243835,0.278909,1.354923,0.334253,8.499472,5.876809,-4.768435
2.150000,-0.474076,-0.534563,1.385206,0.679564,1.070169,-0.033660,-1.384944,0.876099,0.246935,0.363240,1.412752,0.285405,8.365334,5.683338,-5.001006
2.160000,-0.467350,-0.523817,1.384882,0.665735,1.079002,-0.031177,-1.380896,0.890509,0.249536,0.446141,1.468650,0.234295,8.224126,5.450173,-5.233646
2.170000,-0.460761,-0.512982,1.384583,0.651949,1.087981,-0.028671,-1.376026,0.905463,0.251613,0.527643,1.521839,0.180803,8.074813,5.181649,-5.464277
2.180000,-0.454310,-0.502057,1.384309,0.638217,1.097113,-0.026147,-1.370349,0.920936,0.253144,0.607611,1.572165,0.125018,7.917550,4.877602,-5.692271
2.190000,-0.447997,-0.491039,1.384060,0.624545,1.106402,-0.023610,-1.363879,0.936896,0.254106,0.685968,1.619272,0.066968,7.752495,4.537865,-5.916999
2.200000,-0.441819,-0.479928,1.383836,0.610942,1.115852,-0.021067,-1.356635,0.953309,0.254476,0.762636,1.662803,0.006691,7.579803,4.162276,-6.137832
2.210000,-0.435778,-0.468722,1.383638,0.597415,1.125469,-0.018523,-1.348633,0.970141,0.254234,0.837514,1.702586,-0.055659,7.400270,3.745910,-6.357018
2.220000,-0.429871,-0.457418,1.383466,0.583972,1.135256,-0.015984,-1.339891,0.987347,0.253356,0.910588,1.737815,-0.120303,7.213333,3.293944,-6.570700
2.230000,-0.424098,-0.446016,1.383319,0.570619,1.145217,-0.013458,-1.330427,1.004882,0.251821,0.981756,1.768347,-0.187052,7.019070,2.806795,-6.777897
2.240000,-0.418458,-0.434513,1.383197,0.557365,1.155355,-0.010950,-1.320262,1.022697,0.249608,1.050945,1.793835,-0.255836,6.817558,2.284881,-6.977629
2.250000,-0.412950,-0.422908,1.383100,0.544216,1.165672,-0.008468,-1.309415,1.040740,0.246697,1.118083,1.813931,-0.326576,6.608873,1.728619,-7.168914
2.260000,-0.407573,-0.411199,1.383027,0.531179,1.176170,-0.006019,-1.297908,1.058959,0.243072,1.183106,1.828498,-0.399024,6.392902,1.133260,-7.354792
2.270000,-0.402326,-0.399384,1.382979,0.518260,1.186851,-0.003609,-1.285761,1.077290,0.238711,1.245926,1.836717,-0.473456,6.169937,0.505022,-7.529769
2.280000,-0.397208,-0.387462,1.382955,0.505466,1.197716,-0.001247,-1.272997,1.095671,0.233597,1.306482,1.838493,-0.549578,5.940079,-0.155046,-7.692372
2.290000,-0.392217,-0.375429,1.382954,0.492802,1.208765,0.001060,-1.259639,1.114037,0.227714,1.364705,1.833513,-0.627257,5.703430,-0.845892,-7.841130
2.300000,-0.387351,-0.363286,1.382976,0.480275,1.219997,0.003305,-1.245711,1.132318,0.221047,1.420528,1.821476,-0.706349,5.460091,-1.566467,-7.974568
2.310000,-0.382611,-0.351029,1.383020,0.467890,1.231411,0.005479,-1.231236,1.150445,0.213585,1.473929,1.802325,-0.786535,5.209062,-2.321702,-8.095188
2.320000,-0.377993,-0.338657,1.383085,0.455652,1.243005,0.007574,-1.216240,1.168339,0.205313,1.524738,1.775219,-0.868013,4.951679,-3.103831,-8.197056
2.330000,-0.373497,-0.326168,1.383171,0.443567,1.254776,0.009582,-1.200750,1.185923,0.196221,1.572942,1.740165,-0.950408,4.688177,-3.911073,-8.278213
2.340000,-0.369121,-0.313561,1.383277,0.431639,1.266722,0.011495,-1.184790,1.203115,0.186302,1.618482,1.696920,-1.033502,4.418793,-4.741643,-8.336699
2.350000,-0.364864,-0.300833,1.383401,0.419873,1.278837,0.013305,-1.168389,1.219833,0.175550,1.661299,1.645260,-1.117059,4.143763,-5.593759,-8.370554
2.360000,-0.360723,-0.287984,1.383542,0.408272,1.291117,0.015004,-1.151573,1.235995,0.163961,1.701424,1.585309,-1.200753,3.861171,-6.473979,-8.379607
2.370000,-0.356698,-0.275010,1.383700,0.396842,1.303555,0.016582,-1.134370,1.251510,0.151535,1.738602,1.516096,-1.284476,3.573667,-7.371157,-8.359892
2.380000,-0.352786,-0.261912,1.383873,0.385586,1.316144,0.018032,-1.116810,1.266287,0.138273,1.772882,1.437839,-1.367848,3.281749,-8.282489,-8.309230
2.390000,-0.348985,-0.248687,1.384060,0.374507,1.328878,0.019344,-1.098922,1.280236,0.124180,1.804224,1.350409,-1.450550,2.985917,-9.205171,-8.225442
2.400000,-0.345295,-0.235334,1.384260,0.363609,1.341746,0.020512,-1.080736,1.293264,0.109265,1.832589,1.253707,-1.532239,2.686669,-10.136398,-8.106351
2.410000,-0.341713,-0.221852,1.384470,0.352893,1.354740,0.021527,-1.062280,1.305280,0.093540,1.858012,1.147731,-1.612590,2.382875,-11.075120,-7.948827
2.420000,-0.338236,-0.208239,1.384690,0.342364,1.367848,0.022381,-1.043586,1.316187,0.077019,1.880312,1.032274,-1.691127,2.076863,-12.016564,-7.751759
2.430000,-0.334865,-0.194494,1.384917,0.332022,1.381059,0.023065,-1.024684,1.325894,0.059724,1.899544,0.907401,-1.767486,1.769330,-12.957711,-7.513085
2.440000,-0.331595,-0.180617,1.385151,0.321871,1.394361,0.023573,-1.005605,1.334304,0.041678,1.915696,0.773131,-1.841243,1.460974,-13.895543,-7.230743
2.450000,-0.328427,-0.166607,1.385388,0.311911,1.407741,0.023896,-0.986380,1.341325,0.022910,1.928763,0.629511,-1.911949,1.152494,-14.827039,-6.902671
2.460000,-0.325356,-0.152462,1.385628,0.302144,1.421183,0.024029,-0.967038,1.346870,0.003447,1.938906,0.477269,-1.979548,0.840593,-15.765560,-6.516417
2.470000,-0.322383,-0.138183,1.385868,0.292570,1.434673,0.023963,-0.947613,1.350839,-0.016668,1.945759,0.314979,-2.042579,0.530453,-16.689702,-6.081582
2.480000,-0.319504,-0.123769,1.386106,0.283191,1.448194,0.023693,-0.928134,1.353140,-0.037390,1.949525,0.143540,-2.101015,0.223262,-17.594441,-5.597377
2.490000,-0.316719,-0.109219,1.386341,0.274008,1.461730,0.023213,-0.908632,1.353680,-0.058671,1.950238,-0.036828,-2.154359,-0.079793,-18.474754,-5.063010
2.500000,-0.314024,-0.094534,1.386570,0.265019,1.475261,0.022518,-0.889139,1.352374,-0.080458,1.947947,-0.225857,-2.202106,-0.377524,-19.325615,-4.477694
2.510000,-0.311418,-0.079714,1.386791,0.256225,1.488771,0.021603,-0.869683,1.349135,-0.102699,1.942749,-0.423282,-2.244288,-0.669752,-20.140588,-3.826810
2.520000,-0.308898,-0.064759,1.387001,0.247625,1.502237,0.020463,-0.850293,1.343882,-0.125321,1.934623,-0.628601,-2.279090,-0.954158,-20.916233,-3.125089
2.530000,-0.306464,-0.049669,1.387199,0.239219,1.515641,0.019095,-0.831000,1.336538,-0.148256,1.923697,-0.841459,-2.306624,-1.229432,-21.647700,-2.373437
2.540000,-0.304113,-0.034446,1.387382,0.231004,1.528961,0.017497,-0.811829,1.327029,-0.171428,1.910069,-1.061391,-2.326395,-1.494262,-22.330137,-1.572756
2.550000,-0.301844,-0.019091,1.387548,0.222981,1.542174,0.015666,-0.792807,1.315288,-0.194757,1.893851,-1.287882,-2.337918,-1.747337,-22.958693,-0.723951
2.560000,-0.299653,-0.003603,1.387695,0.215148,1.555259,0.013602,-0.773960,1.301248,-0.218166,1.875132,-1.520679,-2.341471,-1.986488,-23.520705,0.191122
2.570000,-0.297540,0.012014,1.387820,0.207502,1.568192,0.011303,-0.755312,1.284857,-0.241555,1.854130,-1.758436,-2.334800,-2.211369,-24.020089,1.150179
2.580000,-0.295503,0.027760,1.387920,0.200041,1.580948,0.008771,-0.736885,1.266064,-0.264829,1.830956,-2.000859,-2.318331,-2.420773,-24.452950,2.149985
2.590000,-0.293539,0.043632,1.387994,0.192763,1.593505,0.006007,-0.718700,1.244826,-0.287888,1.805770,-2.247261,-2.291675,-2.613495,-24.815394,3.187303
2.600000,-0.291647,0.059629,1.388040,0.185666,1.605837,0.003015,-0.700775,1.221108,-0.310627,1.778746,-2.496919,-2.254471,-2.788329,-25.103524,4.258897
2.610000,-0.289825,0.075748,1.388054,0.178747,1.617919,-0.000203,-0.683131,1.194879,-0.332951,1.750014,-2.749154,-2.207316,-2.942719,-25.311335,5.384830
2.620000,-0.288071,0.091987,1.388035,0.172002,1.629726,-0.003642,-0.665780,1.166119,-0.354736,1.719898,-3.002967,-2.147731,-3.076976,-25.437301,6.535713
2.630000,-0.286384,0.108342,1.387980,0.165430,1.641233,-0.007296,-0.648737,1.134817,-0.375867,1.688545,-3.257615,-2.076539,-3.190059,-25.477788,7.705458
2.640000,-0.284762,0.124810,1.387888,0.159027,1.652414,-0.011157,-0.632013,1.100967,-0.396227,1.656171,-3.512226,-1.993580,-3.280927,-25.429157,8.887975
2.650000,-0.283203,0.141389,1.387757,0.152789,1.663243,-0.015218,-0.615616,1.064575,-0.415699,1.623004,-3.765889,-1.898757,-3.348541,-25.287774,10.077176
2.660000,-0.281706,0.158074,1.387583,0.146713,1.673697,-0.019468,-0.599557,1.025644,-0.434169,1.589020,-4.018745,-1.792594,-3.385252,-25.022581,11.281110
2.670000,-0.280268,0.174862,1.387367,0.140797,1.683748,-0.023897,-0.583837,0.984211,-0.451511,1.555086,-4.267243,-1.673790,-3.397436,-24.660720,12.477818
2.680000,-0.278889,0.191748,1.387105,0.135035,1.693373,-0.028494,-0.568455,0.940313,-0.467605,1.521153,-4.511637,-1.543088,-3.384865,-24.201913,13.659479
2.690000,-0.277567,0.208728,1.386796,0.129426,1.702546,-0.033245,-0.553413,0.893995,-0.482333,1.487472,-4.750957,-1.400677,-3.347305,-23.645882,14.818272
2.700000,-0.276300,0.225797,1.386439,0.123966,1.711245,-0.038135,-0.538704,0.845314,-0.495580,1.454291,-4.984229,-1.246825,-3.284527,-22.992347,15.946378
2.710000,-0.275087,0.242951,1.386033,0.118651,1.719445,-0.043151,-0.524328,0.794322,-0.507234,1.421555,-5.211589,-1.081969,-3.188442,-22.212953,17.038288
2.720000,-0.273927,0.260184,1.385576,0.113478,1.727124,-0.048274,-0.510270,0.741109,-0.517184,1.390254,-5.429426,-0.906318,-3.067639,-21.338936,18.083586
2.730000,-0.272817,0.277491,1.385067,0.108445,1.734260,-0.053488,-0.496518,0.685764,-0.525326,1.360282,-5.638063,-0.720480,-2.922848,-20.373457,19.074168
2.740000,-0.271757,0.294867,1.384506,0.103547,1.740833,-0.058775,-0.483059,0.628382,-0.531561,1.331875,-5.836601,-0.525044,-2.754801,-19.319674,20.001931
2.750000,-0.270746,0.312306,1.383892,0.098783,1.746822,-0.064113,-0.469875,0.569068,-0.535797,1.305261,-6.024173,-0.320678,-2.564229,-18.180747,20.858770
2.760000,-0.269781,0.329802,1.383224,0.094149,1.752208,-0.069484,-0.456950,0.507925,-0.537941,1.280325,-6.201099,-0.107521,-2.343320,-16.930647,21.621158
2.770000,-0.268862,0.347348,1.382502,0.089643,1.756975,-0.074865,-0.444260,0.445089,-0.537924,1.258080,-6.363838,0.112150,-2.102395,-15.605297,22.298304
2.780000,-0.267988,0.364939,1.381726,0.085263,1.761105,-0.080235,-0.431781,0.380694,-0.535677,1.238337,-6.512976,0.338140,-1.843229,-14.211429,22.883993
2.790000,-0.267157,0.382568,1.380897,0.081007,1.764584,-0.085571,-0.419485,0.314877,-0.531143,1.221270,-6.647861,0.569504,-1.567600,-12.755777,23.372010
2.800000,-0.266367,0.400229,1.380015,0.076873,1.767398,-0.090850,-0.407346,0.247786,-0.524272,1.207034,-6.767908,0.805234,-1.277285,-11.245074,23.756139
2.810000,-0.265619,0.417914,1.379081,0.072860,1.769536,-0.096049,-0.395337,0.179563,-0.515014,1.195523,-6.873286,1.045460,-0.967894,-9.668761,23.999870
2.820000,-0.264910,0.435617,1.378095,0.068966,1.770987,-0.101142,-0.383425,0.110373,-0.503357,1.187436,-6.961924,1.286209,-0.648126,-8.052982,24.130992
2.830000,-0.264239,0.453331,1.377058,0.065191,1.771741,-0.106108,-0.371577,0.040379,-0.489288,1.182587,-7.034243,1.527696,-0.320514,-6.406589,24.147001
2.840000,-0.263606,0.471050,1.375973,0.061534,1.771792,-0.110920,-0.359762,-0.030256,-0.472804,1.181043,-7.089983,1.768757,0.012410,-4.738433,24.045392
2.850000,-0.263008,0.488765,1.374840,0.057996,1.771134,-0.115556,-0.347945,-0.101365,-0.453918,1.182845,-7.128969,2.008203,0.348113,-3.057365,23.823659
2.860000,-0.262445,0.506470,1.373662,0.054575,1.769764,-0.119991,-0.336094,-0.172779,-0.432634,1.187951,-7.151046,2.246280,0.685467,-1.374022,23.442444
2.870000,-0.261916,0.524158,1.372441,0.051274,1.767678,-0.124201,-0.324175,-0.244330,-0.409007,1.196483,-7.156385,2.478295,1.020364,0.304749,22.940608
2.880000,-0.261419,0.541821,1.371179,0.048092,1.764877,-0.128164,-0.312154,-0.315851,-0.383087,1.208341,-7.144995,2.704697,1.350098,1.970315,22.320157
2.890000,-0.260954,0.559453,1.369879,0.045031,1.761362,-0.131855,-0.299997,-0.387174,-0.354936,1.223459,-7.117052,2.924310,1.671967,3.614045,21.583100
2.900000,-0.260518,0.577046,1.368543,0.042093,1.757135,-0.135255,-0.287674,-0.458137,-0.324627,1.241745,-7.072816,3.135977,1.983265,5.227306,20.731443
2.910000,-0.260112,0.594593,1.367175,0.039278,1.752201,-0.138341,-0.275151,-0.528569,-0.292232,1.263234,-7.011871,3.339892,2.277389,6.782149,19.733641
2.920000,-0.259732,0.612088,1.365777,0.036590,1.746566,-0.141094,-0.262400,-0.598324,-0.257864,1.287415,-6.936462,3.531793,2.556012,8.291623,18.629364
2.930000,-0.259379,0.629522,1.364354,0.034031,1.740237,-0.143493,-0.249393,-0.667249,-0.221635,1.314295,-6.846211,3.712144,2.816905,9.749462,17.424726
2.940000,-0.259051,0.646890,1.362909,0.031604,1.733224,-0.145520,-0.236105,-0.735200,-0.183663,1.343687,-6.741665,3.879973,3.057843,11.149398,16.125843
2.950000,-0.258747,0.664184,1.361445,0.029310,1.725537,-0.147160,-0.222512,-0.802037,-0.144080,1.375378,-6.623437,4.034367,3.276598,12.485163,14.738831
2.960000,-0.258465,0.681399,1.359967,0.027154,1.717187,-0.148397,-0.208587,-0.867613,-0.103014,1.409462,-6.491022,4.175352,3.462744,13.720816,13.247678
2.970000,-0.258203,0.698526,1.358479,0.025140,1.708189,-0.149217,-0.194317,-0.931817,-0.060624,1.444914,-6.347939,4.300065,3.623257,14.883399,11.683337
2.980000,-0.257961,0.715560,1.356984,0.023269,1.698556,-0.149606,-0.179684,-0.994534,-0.017066,1.481837,-6.193606,4.408805,3.756915,15.970277,10.054634
2.990000,-0.257738,0.732495,1.355488,0.021547,1.688303,-0.149555,-0.164676,-1.055654,0.027497,1.519958,-6.028795,4.500972,3.862496,16.978818,8.370395
3.000000,-0.257530,0.749324,1.353994,0.019977,1.677448,-0.149053,-0.149282,-1.115078,0.072897,1.558990,-5.854300,4.576057,3.938775,17.906389,6.639443
3.010000,-0.257337,0.766042,1.352508,0.018563,1.666007,-0.148095,-0.133490,-1.172698,0.118963,1.599045,-5.669735,4.633895,3.974094,18.719793,4.864036
3.020000,-0.257158,0.782643,1.351034,0.017308,1.654000,-0.146672,-0.117301,-1.228447,0.165515,1.638836,-5.478815,4.673537,3.978945,19.450703,3.060373
3.030000,-0.256991,0.799120,1.349576,0.016218,1.641445,-0.144783,-0.100714,-1.282251,0.212373,1.678523,-5.280993,4.695040,3.953382,20.100226,1.238083
3.040000,-0.256833,0.815470,1.348140,0.015295,1.628362,-0.142425,-0.083731,-1.334046,0.259355,1.717802,-5.077078,4.698268,3.897460,20.669471,-0.593203
3.050000,-0.256684,0.831686,1.346729,0.014545,1.614771,-0.139596,-0.066360,-1.383775,0.306277,1.756371,-4.867867,4.683179,3.811234,21.159549,-2.423857
3.060000,-0.256542,0.847763,1.345350,0.013969,1.600693,-0.136300,-0.048603,-1.431379,0.352954,1.794329,-4.653243,4.649495,3.684588,21.548725,-4.235908
3.070000,-0.256404,0.863698,1.344005,0.013574,1.586150,-0.132539,-0.030478,-1.476828,0.399207,1.830420,-4.436120,4.598151,3.528993,21.863748,-6.029088
3.080000,-0.256270,0.879485,1.342700,0.013361,1.571164,-0.128318,-0.012000,-1.520092,0.444857,1.864817,-4.216202,4.529005,3.345751,22.108524,-7.794788
3.090000,-0.256136,0.895120,1.341440,0.013335,1.555756,-0.123644,0.006812,-1.561145,0.489729,1.897248,-3.994171,4.442375,3.136162,22.286957,-9.524399
3.100000,-0.256002,0.910599,1.340229,0.013498,1.539948,-0.118526,0.025937,-1.599970,0.533648,1.927456,-3.770671,4.338666,2.901528,22.402953,-11.209314
3.110000,-0.255866,0.925918,1.339071,0.013854,1.523764,-0.112975,0.045356,-1.636551,0.576439,1.955508,-3.545907,4.217617,2.635336,22.450315,-12.821986
3.120000,-0.255725,0.941073,1.337971,0.014406,1.507225,-0.107001,0.065038,-1.670888,0.617948,1.980440,-3.321391,4.081580,2.347657,22.444289,-14.375063
3.130000,-0.255577,0.956061,1.336932,0.015156,1.490353,-0.100620,0.084955,-1.702980,0.658020,2.002397,-3.097182,3.930336,2.040746,22.390019,-15.862255
3.140000,-0.255421,0.970879,1.335960,0.016106,1.473172,-0.093846,0.105076,-1.732834,0.696506,2.021199,-2.873735,3.764575,1.716860,22.292648,-17.277272
3.150000,-0.255254,0.985524,1.335057,0.017258,1.455704,-0.086696,0.125368,-1.760459,0.733265,2.036685,-2.651455,3.585052,1.378257,22.157318,-18.613824
3.160000,-0.255075,0.999992,1.334227,0.018614,1.437971,-0.079187,0.145800,-1.785870,0.768154,2.048881,-2.430836,3.391640,1.023186,21.992669,-19.841843
3.170000,-0.254881,1.014282,1.333474,0.020174,1.419994,-0.071339,0.166333,-1.809081,0.801058,2.057296,-2.211852,3.187447,0.658402,21.799920,-20.981729
3.180000,-0.254671,1.028391,1.332801,0.021941,1.401796,-0.063173,0.186933,-1.830113,0.831866,2.062026,-1.994916,2.972310,0.286653,21.583785,-22.030103
3.190000,-0.254442,1.042317,1.332212,0.023913,1.383399,-0.054709,0.207562,-1.848987,0.860471,2.063015,-1.780238,2.747161,-0.089313,21.348981,-22.983589
3.200000,-0.254192,1.056059,1.331708,0.026092,1.364824,-0.045971,0.228181,-1.865726,0.886779,2.060234,-1.567983,2.512966,-0.466748,21.100222,-23.838807
3.210000,-0.253919,1.069613,1.331293,0.028476,1.346092,-0.036981,0.248754,-1.880361,0.910694,2.053674,-1.358814,2.269793,-0.842664,20.856089,-24.568863
3.220000,-0.253622,1.082980,1.330969,0.031067,1.327224,-0.027765,0.269242,-1.892911,0.932152,2.043384,-1.151500,2.020879,-1.214582,20.605733,-25.196774
3.230000,-0.253297,1.096157,1.330739,0.033861,1.308240,-0.018347,0.289609,-1.903400,0.951092,2.029405,-0.946710,1.766199,-1.579786,20.352172,-25.722043
3.240000,-0.252944,1.109145,1.330603,0.036858,1.289162,-0.008752,0.309818,-1.911853,0.967460,2.011820,-0.744458,1.506782,-1.935555,20.098423,-26.144171
3.250000,-0.252559,1.121940,1.330564,0.040057,1.270010,0.000994,0.329834,-1.918297,0.981215,1.990735,-0.544732,1.243661,-2.279172,19.847505,-26.462661
3.260000,-0.252142,1.134545,1.330623,0.043454,1.250803,0.010864,0.349620,-1.922764,0.992316,1.966123,-0.348225,0.977087,-2.603807,19.621045,-26.657089
3.270000,-0.251690,1.146956,1.330782,0.047048,1.231561,0.020832,0.369146,-1.925269,1.000752,1.938532,-0.153120,0.709971,-2.911355,19.401170,-26.749321
3.280000,-0.251200,1.159176,1.331040,0.050836,1.212304,0.030870,0.388380,-1.925834,1.006514,1.907960,0.039823,0.442435,-3.199604,19.188620,-26.741298
3.290000,-0.250672,1.171202,1.331399,0.054815,1.193051,0.040953,0.407295,-1.924480,1.009603,1.874612,0.230680,0.175473,-3.466337,18.984131,-26.634961
3.300000,-0.250104,1.183037,1.331859,0.058981,1.173821,0.051053,0.425864,-1.921227,1.010029,1.838712,0.419535,-0.089943,-3.709340,18.788443,-26.432252
3.310000,-0.249492,1.194679,1.332420,0.063331,1.154633,0.061145,0.444059,-1.916103,1.007806,1.800227,0.605788,-0.353444,-3.919226,18.619777,-26.120310
3.320000,-0.248836,1.206130,1.333082,0.067861,1.135505,0.071201,0.461862,-1.909117,1.002972,1.760099,0.791177,-0.612708,-4.101830,18.459247,-25.717690
3.330000,-0.248134,1.217389,1.333844,0.072567,1.116457,0.081196,0.479255,-1.900285,0.995567,1.718286,0.974995,-0.867508,-4.255816,18.305451,-25.228145
3.340000,-0.247384,1.228459,1.334706,0.077445,1.097506,0.091104,0.496223,-1.889622,0.985640,1.675082,1.157304,-1.116993,-4.379846,18.156987,-24.655429
3.350000,-0.246585,1.239340,1.335666,0.082490,1.078671,0.100900,0.512753,-1.877143,0.973247,1.630793,1.338148,-1.360351,-4.472584,18.012452,-24.003296
3.360000,-0.245734,1.250033,1.336723,0.087698,1.059969,0.110561,0.528833,-1.862869,0.958452,1.585376,1.517104,-1.597176,-4.523522,17.881983,-23.266184
3.370000,-0.244830,1.260540,1.337876,0.093065,1.041419,0.120062,0.544460,-1.846806,0.941330,1.540023,1.695272,-1.825855,-4.541616,17.751226,-22.458301
3.380000,-0.243872,1.270862,1.339124,0.098586,1.023039,0.129380,0.559633,-1.828968,0.921962,1.494654,1.872118,-2.046122,-4.526655,17.617364,-21.584544
3.390000,-0.242858,1.281001,1.340463,0.104256,1.004846,0.138494,0.574354,-1.809368,0.900437,1.449601,2.047599,-2.257343,-4.478423,17.477583,-20.649804
3.400000,-0.241787,1.290960,1.341893,0.110071,0.986857,0.147382,0.588627,-1.788020,0.876848,1.405197,2.221641,-2.458931,-4.396708,17.329066,-19.658977
3.410000,-0.240656,1.300739,1.343410,0.116027,0.969091,0.156024,0.602457,-1.764941,0.851291,1.361381,2.394025,-2.650507,-4.271233,17.171952,-18.613020
3.420000,-0.239466,1.310342,1.345012,0.122119,0.951564,0.164402,0.615860,-1.740145,0.823873,1.319432,2.564899,-2.831215,-4.113080,17.000109,-17.521246
3.430000,-0.238213,1.319771,1.346697,0.128343,0.934294,0.172496,0.628851,-1.713650,0.794704,1.279225,2.733968,-3.000798,-3.923265,16.810362,-16.389030
3.440000,-0.236898,1.329029,1.348461,0.134695,0.917297,0.180290,0.641451,-1.685473,0.763896,1.241069,2.901036,-3.158878,-3.702809,16.599532,-15.221750
3.450000,-0.235519,1.338118,1.350302,0.141171,0.900590,0.187769,0.653680,-1.655636,0.731566,1.205267,3.065877,-3.305134,-3.452728,16.364442,-14.024782
3.460000,-0.234075,1.347042,1.352216,0.147768,0.884190,0.194917,0.665561,-1.624161,0.697834,1.171718,3.228464,-3.439246,-3.164135,16.096093,-12.804690
3.470000,-0.232563,1.355803,1.354199,0.154481,0.868112,0.201721,0.677125,-1.591076,0.662822,1.141630,3.387960,-3.561111,-2.849167,15.797843,-11.565517
3.480000,-0.230985,1.364405,1.356249,0.161309,0.852373,0.208169,0.688404,-1.556412,0.626653,1.114815,3.544313,-3.670510,-2.510056,15.467228,-10.312493
3.490000,-0.229337,1.372852,1.358361,0.168249,0.836989,0.214251,0.699433,-1.520202,0.589453,1.091502,3.697188,-3.767332,-2.149034,15.101784,-9.050847
3.500000,-0.227619,1.381146,1.360533,0.175297,0.821974,0.219955,0.710247,-1.482481,0.551349,1.071900,3.846224,-3.851516,-1.768332,14.699047,-7.785812
3.510000,-0.225831,1.389292,1.362759,0.182453,0.807344,0.225275,0.720880,-1.443286,0.512468,1.055842,3.991544,-3.922825,-1.361297,14.243736,-6.528403
3.520000,-0.223970,1.397294,1.365037,0.189714,0.793113,0.230202,0.731377,-1.402666,0.472934,1.044324,4.131536,-3.981847,-0.940133,13.747774,-5.277356
3.530000,-0.222036,1.405156,1.367362,0.197080,0.779295,0.234732,0.741781,-1.360672,0.432872,1.037075,4.266361,-4.028409,-0.508158,13.210266,-4.037193
3.540000,-0.220028,1.412882,1.369730,0.204550,0.765904,0.238859,0.752133,-1.317358,0.392407,1.034186,4.395600,-4.062642,-0.068693,12.630316,-2.812436
3.550000,-0.217945,1.420476,1.372138,0.212123,0.752952,0.242579,0.762479,-1.272780,0.351660,1.035715,4.518823,-4.084724,0.374943,12.007031,-1.607608
3.560000,-0.215785,1.427942,1.374580,0.219800,0.740452,0.245891,0.772858,-1.226995,0.310756,1.041263,4.636294,-4.094518,0.830173,11.321802,-0.436274
3.570000,-0.213548,1.435286,1.377054,0.227580,0.728416,0.248794,0.783320,-1.180078,0.269808,1.051827,4.745906,-4.093138,1.281621,10.593616,0.707196
3.580000,-0.211233,1.442512,1.379555,0.235466,0.716854,0.251288,0.793909,-1.132102,0.228931,1.066867,4.848027,-4.080478,1.724651,9.823749,1.819386
3.590000,-0.208839,1.449625,1.382078,0.243459,0.705777,0.253373,0.804671,-1.083144,0.188235,1.086276,4.942247,-4.056866,2.154629,9.013474,2.896883
3.600000,-0.206363,1.456629,1.384621,0.251561,0.695194,0.255053,0.815649,-1.033285,0.147829,1.109901,5.028167,-4.022667,2.566922,8.164066,3.936272
3.610000,-0.203807,1.463530,1.387178,0.259773,0.685114,0.256331,0.826888,-0.982604,0.107821,1.137978,5.105898,-3.977804,2.945821,7.264277,4.922144
3.620000,-0.201168,1.470333,1.389746,0.268099,0.675545,0.257211,0.838421,-0.931197,0.068305,1.169226,5.173894,-3.923834,3.299120,6.329436,5.864547
3.630000,-0.198445,1.477043,1.392321,0.276542,0.666492,0.257699,0.850283,-0.879158,0.029375,1.203865,5.232379,-3.860665,3.623541,5.362351,6.761536
3.640000,-0.195636,1.483665,1.394899,0.285106,0.657963,0.257801,0.862508,-0.826582,-0.008879,1.241590,5.281043,-3.788761,3.915805,4.365829,7.611165
3.650000,-0.192742,1.490204,1.397476,0.293794,0.649962,0.257524,0.875124,-0.773571,-0.046373,1.282063,5.319607,-3.708606,4.172633,3.342678,8.411487
3.660000,-0.189760,1.496666,1.400048,0.302610,0.642493,0.256876,0.888155,-0.720219,-0.083021,1.324651,5.348355,-3.620321,4.397368,2.282116,9.150922
3.670000,-0.186689,1.503056,1.402612,0.311559,0.635558,0.255866,0.901624,-0.666639,-0.118755,1.369572,5.365791,-3.525331,4.579299,1.202203,9.838338
3.680000,-0.183528,1.509379,1.405164,0.320644,0.629160,0.254504,0.915551,-0.612939,-0.153506,1.416081,5.372350,-3.423730,4.714336,0.107412,10.472971
3.690000,-0.180276,1.515641,1.407701,0.329871,0.623300,0.252800,0.929950,-0.559229,-0.187210,1.463688,5.367905,-3.316050,4.798389,-0.997787,11.054053
3.700000,-0.176931,1.521847,1.410219,0.339245,0.617975,0.250764,0.944827,-0.505618,-0.219809,1.511865,5.352374,-3.202830,4.827370,-2.108921,11.580820
3.710000,-0.173491,1.528002,1.412715,0.348769,0.613187,0.248407,0.960205,-0.452221,-0.251245,1.561713,5.325458,-3.084195,4.754908,-3.214876,12.041841
3.720000,-0.169955,1.534112,1.415186,0.358450,0.608930,0.245743,0.976058,-0.399146,-0.281478,1.608657,5.287787,-2.961699,4.624372,-4.318638,12.448320
3.730000,-0.166321,1.540182,1.417629,0.368292,0.605202,0.242782,0.992373,-0.346502,-0.310466,1.654010,5.239105,-2.835408,4.436847,-5.416548,12.800797
3.740000,-0.162588,1.546218,1.420041,0.378299,0.601998,0.239538,1.009131,-0.294400,-0.338175,1.697207,5.179488,-2.705861,4.193422,-6.504949,13.099812
3.750000,-0.158755,1.552224,1.422419,0.388476,0.599312,0.236023,1.026308,-0.242949,-0.364575,1.737696,5.109050,-2.573588,3.895184,-7.580184,13.345906
3.760000,-0.154818,1.558206,1.424761,0.398826,0.597137,0.232251,1.043888,-0.192258,-0.389636,1.776194,5.027661,-2.438803,3.511353,-8.631539,13.531682
3.770000,-0.150777,1.564169,1.427063,0.409354,0.595464,0.228234,1.061818,-0.142430,-0.413345,1.809183,4.936170,-2.302770,3.078786,-9.663274,13.666589
3.780000,-0.146631,1.570117,1.429325,0.420063,0.594285,0.223988,1.080056,-0.093569,-0.435688,1.837624,4.834470,-2.165636,2.602473,-10.672598,13.752136
3.790000,-0.142376,1.576056,1.431542,0.430956,0.593589,0.219525,1.098554,-0.045774,-0.456656,1.861103,4.722802,-2.027887,2.087403,-11.656716,13.789837
3.800000,-0.138011,1.581990,1.433714,0.442035,0.593366,0.214860,1.117260,0.000855,-0.476245,1.879259,4.601429,-1.889994,1.538565,-12.612833,13.781203
3.810000,-0.133534,1.587925,1.435839,0.453302,0.593602,0.210005,1.136113,0.046225,-0.494455,1.891086,4.470806,-1.752261,0.978438,-13.542170,13.723931
3.820000,-0.128944,1.593864,1.437914,0.464758,0.594286,0.204975,1.155063,0.090241,-0.511293,1.897961,4.330879,-1.615488,0.392382,-14.437427,13.623814
3.830000,-0.124238,1.599812,1.439938,0.476403,0.595402,0.199784,1.174052,0.132813,-0.526769,1.898857,4.182182,-1.479921,-0.216757,-15.295320,13.482831
3.840000,-0.119415,1.605773,1.441909,0.488239,0.596937,0.194444,1.193020,0.173857,-0.540897,1.893558,4.025108,-1.345961,-0.846130,-16.112564,13.302960
3.850000,-0.114473,1.611752,1.443826,0.500263,0.598874,0.188970,1.211902,0.213289,-0.553695,1.881876,3.860078,-1.213985,-1.492889,-16.885873,13.086181
3.860000,-0.109410,1.617752,1.445688,0.512476,0.601197,0.183375,1.230640,0.251029,-0.565182,1.864107,3.687157,-1.084143,-2.165686,-17.602089,12.829152
3.870000,-0.104223,1.623777,1.447493,0.524875,0.603889,0.177671,1.249162,0.287009,-0.575387,1.839042,3.507759,-0.957272,-2.848766,-18.269009,12.539823
3.880000,-0.098911,1.629831,1.449241,0.537458,0.606931,0.171871,1.267398,0.321163,-0.584338,1.807112,3.321948,-0.833445,-3.537871,-18.884557,12.220824
3.890000,-0.093473,1.635917,1.450931,0.550222,0.610306,0.165988,1.285281,0.353428,-0.592067,1.768278,3.130246,-0.712946,-4.228744,-19.446657,11.874786
3.900000,-0.087906,1.642038,1.452561,0.563163,0.613993,0.160034,1.302741,0.383750,-0.598609,1.722545,2.933200,-0.596031,-4.917130,-19.953232,11.504338
3.910000,-0.082209,1.648198,1.454131,0.576275,0.617974,0.154020,1.319705,0.412072,-0.604000,1.669574,2.730982,-0.482874,-5.589073,-20.392312,11.110659
3.920000,-0.076380,1.654398,1.455641,0.589555,0.622228,0.147957,1.336110,0.438356,-0.608280,1.610363,2.525107,-0.373816,-6.251203,-20.772927,10.698008
3.930000,-0.070418,1.660643,1.457090,0.602996,0.626734,0.141858,1.351890,0.462563,-0.611490,1.544593,2.315721,-0.268968,-6.900452,-21.094212,10.269193
3.940000,-0.064320,1.666934,1.458478,0.616590,0.631472,0.135731,1.366980,0.484660,-0.613673,1.472408,2.103423,-0.168477,-7.533751,-21.355305,9.827022
3.950000,-0.058085,1.673273,1.459805,0.630333,0.636420,0.129587,1.381318,0.504623,-0.614874,1.393982,1.888819,-0.072463,-8.148032,-21.555339,9.374304
3.960000,-0.051713,1.679663,1.461070,0.644214,0.641558,0.123437,1.394836,0.522426,-0.615139,1.309173,1.672008,0.018894,-8.731440,-21.680445,8.916110
3.970000,-0.045201,1.686105,1.462273,0.658227,0.646862,0.117288,1.407482,0.538060,-0.614512,1.219041,1.454833,0.105741,-9.290769,-21.744357,8.452706
3.980000,-0.038548,1.692601,1.463416,0.672361,0.652312,0.111149,1.419199,0.551521,-0.613040,1.123444,1.237322,0.187939,-9.824025,-21.747804,7.986623
3.990000,-0.031753,1.699152,1.464496,0.686607,0.657885,0.105030,1.429933,0.562808,-0.610769,1.022654,1.020076,0.265473,-10.329216,-21.691513,7.520391
4.000000,-0.024815,1.705759,1.465516,0.700956,0.663560,0.098936,1.439636,0.571926,-0.607746,0.916960,0.803689,0.338355,-10.804349,-21.576212,7.056541
4.010000,-0.017734,1.712423,1.466475,0.715396,0.669316,0.092877,1.448253,0.578882,-0.604019,0.806302,0.588323,0.406382,-11.238052,-21.391934,6.603615
4.020000,-0.010507,1.719145,1.467374,0.729917,0.675131,0.086858,1.455748,0.583699,-0.599633,0.691890,0.375560,0.470181,-11.638860,-21.151413,6.157396
4.030000,-0.003135,1.725926,1.468213,0.744508,0.680983,0.080886,1.462078,0.586402,-0.594631,0.573638,0.165475,0.529559,-12.005929,-20.856687,5.719677
4.040000,0.004383,1.732765,1.468992,0.759155,0.686852,0.074968,1.467209,0.587019,-0.589056,0.451887,-0.041400,0.584609,-12.338414,-20.509794,5.292253
4.050000,0.012048,1.739663,1.469712,0.773848,0.692717,0.069107,1.471106,0.585586,-0.582952,0.326987,-0.244554,0.635444,-12.635473,-20.112772,4.876918
4.060000,0.019860,1.746619,1.470374,0.788573,0.698557,0.063310,1.473736,0.582140,-0.576364,0.198984,-0.443736,0.681886,-12.888333,-19.661562,4.483222
4.070000,0.027820,1.753634,1.470979,0.803318,0.704353,0.057581,1.475077,0.576727,-0.569328,0.068987,-0.637906,0.724811,-13.105048,-19.165045,4.104253
4.080000,0.035927,1.760706,1.471526,0.818070,0.710085,0.051925,1.475109,0.569399,-0.561880,-0.062997,-0.826896,0.764023,-13.285745,-18.626006,3.740857
4.090000,0.044181,1.767835,1.472017,0.832816,0.715735,0.046345,1.473812,0.560208,-0.554059,-0.196608,-1.010294,0.799683,-13.430551,-18.047229,3.393877
4.100000,0.052583,1.775020,1.472453,0.847542,0.721284,0.040845,1.471173,0.549213,-0.545898,-0.331488,-1.187717,0.831959,-13.539591,-17.431500,3.064159
4.110000,0.061132,1.782260,1.472834,0.862235,0.726713,0.035428,1.467177,0.536474,-0.537434,-0.467505,-1.358883,0.860746,-13.607325,-16.779743,2.759630
4.120000,0.069827,1.789554,1.473162,0.876881,0.732007,0.030097,1.461821,0.522057,-0.528693,-0.603772,-1.523291,0.886895,-13.640241,-16.096831,2.473184
4.130000,0.078669,1.796900,1.473437,0.891467,0.737149,0.024855,1.455101,0.506031,-0.519705,-0.740197,-1.680726,0.910270,-13.639159,-15.385774,2.204798
4.140000,0.087657,1.804297,1.473659,0.905979,0.742123,0.019704,1.447017,0.488467,-0.510496,-0.876445,-1.830923,0.931051,-13.604902,-14.649586,1.954449
4.150000,0.096789,1.811742,1.473831,0.920403,0.746914,0.014646,1.437574,0.469438,-0.501092,-1.012187,-1.973644,0.949419,-13.538289,-13.891278,1.722115
4.160000,0.106064,1.819234,1.473953,0.934726,0.751507,0.009683,1.426775,0.449020,-0.491517,-1.147245,-2.108636,0.965360,-13.436602,-13.115089,1.512650
4.170000,0.115483,1.826771,1.474025,0.948934,0.755890,0.004816,1.414633,0.427291,-0.481791,-1.280976,-2.235837,0.979512,-13.304634,-12.322654,1.320557
4.180000,0.125043,1.834351,1.474049,0.963014,0.760049,0.000047,1.401160,0.404330,-0.471933,-1.413241,-2.355045,0.991827,-13.143640,-11.516835,1.145216
4.190000,0.134742,1.841972,1.474026,0.976952,0.763972,-0.004622,1.386374,0.380217,-0.461960,-1.543756,-2.466139,1.002470,-12.954872,-10.700495,0.986005
4.200000,0.144581,1.849630,1.473957,0.990737,0.767650,-0.009192,1.370292,0.355035,-0.451889,-1.672250,-2.569029,1.011599,-12.739586,-9.876496,0.842305
4.210000,0.154557,1.857324,1.473843,1.004354,0.771070,-0.013660,1.352936,0.328866,-0.441734,-1.798527,-2.663517,1.019278,-12.497448,-9.051119,0.715714
4.220000,0.164668,1.865050,1.473684,1.017791,0.774224,-0.018026,1.334330,0.301792,-0.431507,-1.922191,-2.749891,1.025861,-12.231493,-8.223388,0.603121
4.230000,0.174912,1.872807,1.473483,1.031037,0.777103,-0.022290,1.314501,0.273896,-0.421220,-2.043082,-2.827985,1.031384,-11.943170,-7.395745,0.503636
4.240000,0.185288,1.880592,1.473239,1.044077,0.779699,-0.026450,1.293478,0.245260,-0.410883,-2.160984,-2.897814,1.035975,-11.633928,-6.570636,0.416367
4.250000,0.195793,1.888400,1.472954,1.056902,0.782006,-0.030507,1.271292,0.215967,-0.400503,-2.275696,-2.959415,1.039749,-11.305216,-5.750502,0.340421
4.260000,0.206425,1.896231,1.472629,1.069500,0.784017,-0.034460,1.247975,0.186101,-0.390090,-2.387033,-3.012673,1.042820,-10.958371,-4.942236,0.274861
4.270000,0.217182,1.904080,1.472265,1.081858,0.785726,-0.038309,1.223563,0.155740,-0.379649,-2.494813,-3.058092,1.045281,-10.594965,-4.143287,0.218847
4.280000,0.228061,1.911944,1.471863,1.093967,0.787130,-0.042053,1.198092,0.124965,-0.369186,-2.598882,-3.095576,1.047225,-10.216462,-3.355555,0.171494
4.290000,0.239060,1.919821,1.471424,1.105817,0.788224,-0.045693,1.171598,0.093855,-0.358706,-2.699097,-3.125247,1.048736,-9.824323,-2.580937,0.131915
4.300000,0.250177,1.927708,1.470950,1.117396,0.789006,-0.049227,1.144123,0.062486,-0.348213,-2.795328,-3.147245,1.049887,-9.420010,-1.821334,0.099226
4.310000,0.261407,1.935600,1.470440,1.128696,0.789473,-0.052657,1.115706,0.030937,-0.337709,-2.887423,-3.161542,1.050799,-9.005953,-1.083383,0.071070
4.320000,0.272750,1.943496,1.469897,1.139707,0.789625,-0.055981,1.086388,-0.000721,-0.327198,-2.975373,-3.168762,1.051391,-8.582527,-0.363663,0.048212
4.330000,0.284200,1.951392,1.469321,1.150421,0.789459,-0.059201,1.056213,-0.032415,-0.316682,-3.059047,-3.168880,1.051779,-8.151077,0.336508,0.029945
4.340000,0.295757,1.959284,1.468713,1.160829,0.788976,-0.062315,1.025222,-0.064075,-0.306162,-3.138372,-3.162101,1.052003,-7.712945,1.015813,0.015563
4.350000,0.307416,1.967170,1.468075,1.170923,0.788178,-0.065324,0.993460,-0.095634,-0.295642,-3.213288,-3.148638,1.052100,-7.269476,1.672933,0.004360
4.360000,0.319174,1.975047,1.467407,1.180695,0.787064,-0.068228,0.960972,-0.127024,-0.285120,-3.283680,-3.128532,1.052177,-6.823741,2.301788,-0.006344
4.370000,0.331029,1.982910,1.466711,1.190140,0.785638,-0.071026,0.927801,-0.158185,-0.274599,-3.349676,-3.102471,1.052068,-6.375143,2.906406,-0.015039
4.380000,0.342976,1.990758,1.465987,1.199249,0.783902,-0.073720,0.893993,-0.189054,-0.264079,-3.411177,-3.070487,1.051881,-5.924816,3.486050,-0.022189
4.390000,0.355013,1.998587,1.465237,1.208018,0.781858,-0.076308,0.859593,-0.219575,-0.253561,-3.468170,-3.032835,1.051628,-5.473890,4.039986,-0.028258
4.400000,0.367135,2.006395,1.464461,1.216439,0.779511,-0.078791,0.824645,-0.249693,-0.243046,-3.520656,-2.989776,1.051318,-5.023498,4.567479,-0.033711
4.410000,0.379340,2.014177,1.463661,1.224509,0.776866,-0.081169,0.789196,-0.279352,-0.232534,-3.568564,-2.941407,1.051024,-4.576833,5.063530,-0.040766
4.420000,0.391624,2.021931,1.462838,1.232222,0.773926,-0.083442,0.753288,-0.308505,-0.222026,-3.612109,-2.888406,1.050581,-4.132713,5.532190,-0.047918
4.430000,0.403984,2.029654,1.461993,1.239573,0.770697,-0.085609,0.716968,-0.337105,-0.211523,-3.651230,-2.830856,1.050064,-3.692018,5.973245,-0.055416
4.440000,0.416414,2.037344,1.461126,1.246560,0.767186,-0.087672,0.680278,-0.365108,-0.201025,-3.685964,-2.769034,1.049470,-3.255628,6.386483,-0.063511
4.450000,0.428913,2.044997,1.460240,1.253178,0.763397,-0.089630,0.643263,-0.392472,-0.190534,-3.716360,-2.703219,1.048791,-2.824421,6.771691,-0.072451
4.460000,0.441477,2.052611,1.459334,1.259424,0.759339,-0.091483,0.605966,-0.419158,-0.180049,-3.742386,-2.633552,1.048063,-2.401456,7.125078,-0.083640
4.470000,0.454101,2.060183,1.458410,1.265296,0.755017,-0.093231,0.568430,-0.445132,-0.169573,-3.764314,-2.560652,1.047166,-1.985166,7.450447,-0.096032
4.480000,0.466781,2.067710,1.457470,1.270792,0.750438,-0.094874,0.530694,-0.470361,-0.159106,-3.782114,-2.484636,1.046138,-1.576166,7.748023,-0.109736
4.490000,0.479515,2.075191,1.456513,1.275910,0.745612,-0.096413,0.492801,-0.494815,-0.148651,-3.795863,-2.405783,1.044967,-1.175068,8.018030,-0.124859
4.500000,0.492298,2.082622,1.455542,1.280648,0.740545,-0.097847,0.454790,-0.518468,-0.138207,-3.805644,-2.324367,1.043636,-0.782484,8.260695,-0.141509
4.510000,0.505127,2.090001,1.454557,1.285005,0.735245,-0.099177,0.416702,-0.541294,-0.127778,-3.811461,-2.240551,1.042151,-0.401117,8.473500,-0.160304
4.520000,0.517997,2.097326,1.453559,1.288982,0.729722,-0.100403,0.378573,-0.563272,-0.117365,-3.813605,-2.154863,1.040447,-0.029234,8.659747,-0.180780
4.530000,0.530905,2.104595,1.452549,1.292577,0.723983,-0.101525,0.340442,-0.584385,-0.106970,-3.812078,-2.067443,1.038530,0.332807,8.819999,-0.202984
4.540000,0.543847,2.111805,1.451529,1.295790,0.718037,-0.102543,0.302344,-0.604616,-0.096595,-3.806982,-1.978548,1.036382,0.684649,8.954815,-0.226962
4.550000,0.556820,2.118955,1.450498,1.298624,0.711893,-0.103457,0.264314,-0.623952,-0.086243,-3.798421,-1.888429,1.033984,1.025936,9.064757,-0.252761
4.560000,0.569819,2.126042,1.449460,1.301077,0.705561,-0.104267,0.226387,-0.642381,-0.075916,-3.786427,-1.797260,1.031322,1.354463,9.148528,-0.280481
4.570000,0.582840,2.133065,1.448413,1.303152,0.699049,-0.104975,0.188596,-0.659895,-0.065618,-3.771286,-1.705454,1.028371,1.671947,9.208773,-0.310106
4.580000,0.595880,2.140023,1.447361,1.304850,0.692366,-0.105580,0.150972,-0.676488,-0.055350,-3.753025,-1.613160,1.025114,1.978256,9.246282,-0.341676
4.590000,0.608936,2.146912,1.446302,1.306172,0.685522,-0.106082,0.113545,-0.692157,-0.045117,-3.731758,-1.520602,1.021531,2.273260,9.261842,-0.375230
4.600000,0.622003,2.153733,1.445239,1.307121,0.678526,-0.106482,0.076346,-0.706900,-0.034921,-3.707598,-1.427994,1.017602,2.556827,9.256241,-0.410807
4.610000,0.635077,2.160482,1.444173,1.307700,0.671387,-0.106781,0.039403,-0.720717,-0.024766,-3.680601,-1.335505,1.013304,2.827325,9.229262,-0.448353
4.620000,0.648155,2.167160,1.443104,1.307910,0.664115,-0.106978,0.002743,-0.733612,-0.014656,-3.651023,-1.243429,1.008624,3.086309,9.182823,-0.488012
4.630000,0.661234,2.173764,1.442034,1.307756,0.656718,-0.107074,-0.033609,-0.745588,-0.004595,-3.618913,-1.151910,1.003537,3.333831,9.117834,-0.529835
4.640000,0.674309,2.180294,1.440963,1.307239,0.649206,-0.107070,-0.069627,-0.756652,0.005413,-3.584384,-1.061131,0.998020,3.569944,9.035209,-0.573873
4.650000,0.687378,2.186748,1.439893,1.306364,0.641588,-0.106966,-0.105289,-0.766813,0.015364,-3.547552,-0.971262,0.992052,3.794702,8.935857,-0.620176
4.660000,0.700435,2.193125,1.438824,1.305135,0.633873,-0.106763,-0.140570,-0.776081,0.025253,-3.508484,-0.882457,0.985610,4.007058,8.820452,-0.668836
4.670000,0.713479,2.199425,1.437758,1.303554,0.626069,-0.106461,-0.175451,-0.784467,0.035075,-3.467399,-0.794892,0.978669,4.208299,8.690173,-0.719858
4.680000,0.726505,2.205646,1.436695,1.301627,0.618186,-0.106062,-0.209912,-0.791983,0.044825,-3.424355,-0.708700,0.971205,4.398612,8.545961,-0.773288
4.690000,0.739511,2.211789,1.435637,1.299357,0.610232,-0.105565,-0.243932,-0.798646,0.054497,-3.379462,-0.624016,0.963195,4.578187,8.388758,-0.829170
4.700000,0.752491,2.217851,1.434584,1.296750,0.602216,-0.104972,-0.277495,-0.804469,0.064087,-3.332826,-0.540965,0.954613,4.747209,8.219505,-0.887551
4.710000,0.765444,2.223833,1.433538,1.293809,0.594146,-0.104283,-0.310583,-0.809471,0.073587,-3.284525,-0.459678,0.945449,4.905182,8.039536,-0.948829
4.720000,0.778366,2.229734,1.432499,1.290540,0.586029,-0.103501,-0.343181,-0.813669,0.082993,-3.234726,-0.380226,0.935644,5.053062,7.849351,-1.012653
4.730000,0.791254,2.235553,1.431468,1.286947,0.577875,-0.102624,-0.375273,-0.817082,0.092298,-3.183497,-0.302723,0.925188,5.191121,7.649840,-1.079027
4.740000,0.804104,2.241291,1.430446,1.283036,0.569690,-0.101655,-0.406846,-0.819730,0.101495,-3.130935,-0.227257,0.914055,5.319629,7.441898,-1.147952
4.750000,0.816914,2.246947,1.429435,1.278812,0.561483,-0.100594,-0.437887,-0.821634,0.110577,-3.077135,-0.153910,0.902220,5.438860,7.226415,-1.219431
4.760000,0.829680,2.252521,1.428435,1.274280,0.553260,-0.099444,-0.468385,-0.822816,0.119537,-3.022176,-0.082783,0.889685,5.548768,7.005098,-1.294158
4.770000,0.842398,2.258012,1.427447,1.269446,0.545029,-0.098204,-0.498327,-0.823297,0.128368,-2.966175,-0.013864,0.876360,5.649979,6.777927,-1.371358
4.780000,0.855068,2.263421,1.426471,1.264316,0.536796,-0.096877,-0.527705,-0.823101,0.137062,-2.909204,0.052758,0.862250,5.742804,6.545694,-1.450951
4.790000,0.867684,2.268748,1.425509,1.258894,0.528569,-0.095463,-0.556509,-0.822250,0.145610,-2.851346,0.117036,0.847333,5.827551,6.309193,-1.532854
4.800000,0.880244,2.273993,1.424562,1.253187,0.520354,-0.093965,-0.584729,-0.820768,0.154006,-2.792679,0.178931,0.831586,5.904532,6.069217,-1.616985
4.810000,0.892747,2.279155,1.423630,1.247201,0.512156,-0.092384,-0.612360,-0.818680,0.162240,-2.733279,0.238367,0.815023,5.974048,5.827679,-1.704188
4.820000,0.905188,2.284236,1.422715,1.240942,0.503982,-0.090721,-0.639393,-0.816009,0.170303,-2.673221,0.295428,0.797537,6.036418,5.584114,-1.793340
4.830000,0.917565,2.289235,1.421816,1.234415,0.495838,-0.088978,-0.665822,-0.812779,0.178187,-2.612574,0.350045,0.779150,6.091954,5.339180,-1.884248
4.840000,0.929875,2.294153,1.420935,1.227628,0.487728,-0.087158,-0.691642,-0.809016,0.185883,-2.551404,0.402209,0.759847,6.140967,5.093531,-1.976715
4.850000,0.942116,2.298990,1.420073,1.220585,0.479659,-0.085261,-0.716849,-0.804743,0.193381,-2.489775,0.451915,0.739611,6.183768,4.847825,-2.070546
4.860000,0.954286,2.303746,1.419230,1.213293,0.471635,-0.083291,-0.741437,-0.799987,0.200673,-2.427756,0.499117,0.718470,6.220867,4.603992,-2.166505
4.870000,0.966381,2.308422,1.418408,1.205758,0.463661,-0.081249,-0.765403,-0.794769,0.207747,-2.365386,0.543942,0.696321,6.252353,4.361257,-2.263319
4.880000,0.978400,2.313019,1.417606,1.197987,0.455741,-0.079137,-0.788743,-0.789116,0.214596,-2.302727,0.586347,0.673202,6.278511,4.120120,-2.360676
4.890000,0.990340,2.317537,1.416825,1.189985,0.447880,-0.076958,-0.811456,-0.783050,0.221208,-2.239832,0.626351,0.649107,6.299629,3.881081,-2.458263
4.900000,1.002199,2.321977,1.416067,1.181760,0.440081,-0.074713,-0.833539,-0.776597,0.227575,-2.176750,0.663978,0.624037,6.315992,3.644639,-2.555765
4.910000,1.013975,2.326339,1.415331,1.173317,0.432349,-0.072407,-0.854991,-0.769779,0.233686,-2.113538,0.699205,0.598023,6.328175,3.412534,-2.653630
4.920000,1.025665,2.330624,1.414619,1.164662,0.424687,-0.070041,-0.875810,-0.762620,0.239532,-2.050214,0.732184,0.571001,6.336142,3.183874,-2.750692
4.930000,1.037267,2.334833,1.413930,1.155802,0.417098,-0.067617,-0.895995,-0.755143,0.245103,-1.986829,0.762895,0.543013,6.340144,2.959008,-2.846546
4.940000,1.048780,2.338967,1.413267,1.146744,0.409585,-0.065139,-0.915546,-0.747370,0.250389,-1.923423,0.791378,0.514075,6.340435,2.738283,-2.940785
4.950000,1.060202,2.343025,1.412628,1.137494,0.402151,-0.062610,-0.934464,-0.739323,0.255381,-1.860032,0.817676,0.484204,6.337264,2.522049,-3.033004
4.960000,1.071529,2.347010,1.412015,1.128057,0.394799,-0.060033,-0.952747,-0.731024,0.260070,-1.796700,0.841791,0.453437,6.331168,2.311779,-3.123146
4.970000,1.082762,2.350922,1.411427,1.118441,0.387532,-0.057410,-0.970398,-0.722494,0.264447,-1.733431,0.863878,0.421766,6.322079,2.106558,-3.210413
4.980000,1.093898,2.354761,1.410867,1.108651,0.380350,-0.054745,-0.987416,-0.713753,0.268503,-1.670267,0.883939,0.389240,6.310215,1.906594,-3.294356
4.990000,1.104935,2.358529,1.410333,1.098695,0.373257,-0.052041,-1.003804,-0.704822,0.272229,-1.607235,0.902028,0.355892,6.295793,1.712098,-3.374527
5.000000,1.115871,2.362226,1.409826,1.088577,0.366254,-0.049302,-1.019562,-0.695719,0.275618,-1.544359,0.918200,0.321763,6.279028,1.523279,-3.450477
5.010000,1.126706,2.365854,1.409347,1.078305,0.359343,-0.046530,-1.034692,-0.686464,0.278662,-1.481670,0.932476,0.286890,6.260355,1.341288,-3.521558
5.020000,1.137437,2.369413,1.408895,1.067886,0.352525,-0.043729,-1.049196,-0.677075,0.281353,-1.419168,0.945004,0.251340,6.239747,1.165279,-3.587546
5.030000,1.148063,2.372905,1.408472,1.057324,0.345802,-0.040904,-1.063076,-0.667570,0.283686,-1.356881,0.955802,0.215158,6.217395,0.995348,-3.648016
5.040000,1.158583,2.376330,1.408077,1.046626,0.339174,-0.038057,-1.076334,-0.657965,0.285655,-1.294826,0.964932,0.178400,6.193489,0.831590,-3.702543
5.050000,1.168995,2.379689,1.407711,1.035799,0.332643,-0.035192,-1.088973,-0.648277,0.287253,-1.233016,0.972455,0.141128,6.168220,0.674099,-3.750703
5.060000,1.179298,2.382983,1.407374,1.024849,0.326209,-0.032313,-1.100995,-0.638521,0.288475,-1.171471,0.978406,0.103377,6.141919,0.523691,-3.791286
5.070000,1.189491,2.386213,1.407065,1.013781,0.319873,-0.029424,-1.112403,-0.628713,0.289319,-1.110187,0.982918,0.065291,6.114618,0.379653,-3.824750
5.080000,1.199574,2.389381,1.406785,1.002603,0.313635,-0.026528,-1.123200,-0.618867,0.289780,-1.049181,0.986021,0.026907,6.086490,0.241990,-3.850766
5.090000,1.209543,2.392486,1.406534,0.991319,0.307496,-0.023630,-1.133388,-0.608997,0.289856,-0.988460,0.987779,-0.011699,6.057707,0.110710,-3.869007
5.100000,1.219400,2.395531,1.406312,0.979937,0.301455,-0.020732,-1.142970,-0.599116,0.289546,-0.928029,0.988256,-0.050446,6.028442,-0.014182,-3.879143
5.110000,1.229142,2.398516,1.406120,0.968462,0.295513,-0.017840,-1.151949,-0.589237,0.288847,-0.867897,0.987496,-0.089305,5.998995,-0.132166,-3.879539
5.120000,1.238769,2.401442,1.405956,0.956900,0.289670,-0.014957,-1.160329,-0.579370,0.287760,-0.808055,0.985611,-0.128067,5.969397,-0.243810,-3.871336
5.130000,1.248279,2.404310,1.405820,0.945257,0.283926,-0.012086,-1.168112,-0.569528,0.286286,-0.748509,0.982641,-0.166703,5.939805,-0.349171,-3.854364
5.140000,1.257673,2.407120,1.405714,0.933540,0.278280,-0.009232,-1.175300,-0.559721,0.284427,-0.689258,0.978648,-0.205124,5.910376,-0.448305,-3.828456
5.150000,1.266950,2.409875,1.405636,0.921753,0.272731,-0.006399,-1.181898,-0.549958,0.282184,-0.630300,0.973695,-0.243241,5.881267,-0.541269,-3.793443
5.160000,1.276108,2.412575,1.405586,0.909904,0.267280,-0.003590,-1.187907,-0.540250,0.279562,-0.571640,0.967830,-0.281028,5.852847,-0.627770,-3.747492
5.170000,1.285148,2.415221,1.405564,0.897997,0.261926,-0.000809,-1.193331,-0.530604,0.276566,-0.513251,0.961144,-0.318235,5.825036,-0.708256,-3.692305
5.180000,1.294068,2.417814,1.405570,0.886039,0.256668,0.001940,-1.198173,-0.521030,0.273200,-0.455136,0.953684,-0.354844,5.797966,-0.782824,-3.627917
5.190000,1.302868,2.420355,1.405603,0.874035,0.251505,0.004654,-1.202435,-0.511533,0.269471,-0.397289,0.945507,-0.390763,5.771769,-0.851575,-3.554365
5.200000,1.311549,2.422845,1.405662,0.861992,0.246437,0.007329,-1.206120,-0.502122,0.265387,-0.339698,0.936672,-0.425900,5.746576,-0.914605,-3.471684
5.210000,1.320108,2.425284,1.405749,0.849915,0.241462,0.009961,-1.209230,-0.492802,0.260955,-0.282370,0.927224,-0.460237,5.722933,-0.971774,-3.378122
5.220000,1.328547,2.427674,1.405862,0.837810,0.236581,0.012547,-1.211768,-0.483579,0.256185,-0.225253,0.917244,-0.493513,5.700506,-1.023450,-3.275722
5.230000,1.336864,2.430016,1.406000,0.825682,0.231791,0.015083,-1.213736,-0.474459,0.251088,-0.168355,0.906773,-0.525723,5.679377,-1.069761,-3.164739
5.240000,1.345060,2.432310,1.406163,0.813537,0.227091,0.017567,-1.215136,-0.465445,0.245675,-0.111661,0.895866,-0.556780,5.659627,-1.110836,-3.045429
5.250000,1.353135,2.434558,1.406351,0.801381,0.222481,0.019996,-1.215970,-0.456542,0.239957,-0.055158,0.884574,-0.586604,5.641335,-1.146803,-2.918045
5.260000,1.361088,2.436760,1.406563,0.789219,0.217960,0.022366,-1.216240,-0.447755,0.233946,0.001142,0.872939,-0.615180,5.625307,-1.177592,-2.781205
5.270000,1.368919,2.438918,1.406798,0.777058,0.213526,0.024674,-1.215947,-0.439085,0.227658,0.057321,0.861029,-0.642277,5.610811,-1.203554,-2.637003
5.280000,1.376629,2.441031,1.407056,0.764902,0.209178,0.026918,-1.215094,-0.430535,0.221106,0.113363,0.848883,-0.667897,5.597839,-1.224841,-2.485893
5.290000,1.384217,2.443101,1.407336,0.752758,0.204915,0.029095,-1.213680,-0.422108,0.214305,0.169283,0.836547,-0.691973,5.586386,-1.241606,-2.328332
5.300000,1.391684,2.445130,1.407638,0.740630,0.200735,0.031203,-1.211708,-0.413804,0.207272,0.225096,0.824066,-0.714444,5.576442,-1.254000,-2.164774
5.310000,1.399030,2.447116,1.407960,0.728526,0.196638,0.033240,-1.209179,-0.405627,0.200021,0.280774,0.811474,-0.735299,5.569076,-1.261979,-1.994454
5.320000,1.406255,2.449063,1.408302,0.716449,0.192622,0.035203,-1.206093,-0.397575,0.192572,0.336434,0.798831,-0.754371,5.563073,-1.265917,-1.819197
5.330000,1.413359,2.450969,1.408664,0.704405,0.188686,0.037091,-1.202451,-0.389650,0.184940,0.392040,0.786168,-0.771668,5.558293,-1.265990,-1.639610
5.340000,1.420343,2.452837,1.409044,0.692402,0.184829,0.038901,-1.198253,-0.381852,0.177144,0.447603,0.773523,-0.787151,5.554597,-1.262374,-1.456297
5.350000,1.427207,2.454666,1.409442,0.680442,0.181049,0.040633,-1.193499,-0.374180,0.169203,0.503135,0.760932,-0.800784,5.551846,-1.255247,-1.269862
5.360000,1.433952,2.456458,1.409856,0.668533,0.177345,0.042285,-1.188191,-0.366633,0.161135,0.558588,0.748421,-0.812563,5.551290,-1.244572,-1.080318
5.370000,1.440578,2.458213,1.410287,0.656680,0.173716,0.043855,-1.182327,-0.359211,0.152958,0.614100,0.736042,-0.822410,5.551229,-1.230765,-0.888935
5.380000,1.447086,2.459932,1.410733,0.644889,0.170160,0.045344,-1.175909,-0.351912,0.144693,0.669613,0.723816,-0.830338,5.551354,-1.214027,-0.696391
5.390000,1.453476,2.461617,1.411194,0.633164,0.166677,0.046749,-1.168935,-0.344734,0.136358,0.725127,0.711770,-0.836337,5.551357,-1.194561,-0.503365
5.400000,1.459750,2.463266,1.411668,0.621512,0.163265,0.048071,-1.161406,-0.337675,0.127972,0.780639,0.699933,-0.840406,5.550927,-1.172570,-0.310533
5.410000,1.465907,2.464882,1.412155,0.609938,0.159923,0.049308,-1.153323,-0.330734,0.119556,0.836081,0.688318,-0.842544,5.551336,-1.148036,-0.118721
5.420000,1.471949,2.466465,1.412654,0.598447,0.156650,0.050462,-1.144684,-0.323908,0.111128,0.891591,0.676969,-0.842779,5.550500,-1.121409,0.071559
5.430000,1.477876,2.468015,1.413164,0.587046,0.153445,0.051531,-1.135491,-0.317194,0.102707,0.947085,0.665896,-0.841121,5.547916,-1.092918,0.259646
5.440000,1.483690,2.469534,1.413684,0.575739,0.150306,0.052516,-1.125743,-0.310589,0.094312,1.002542,0.655116,-0.837595,5.543081,-1.062792,0.444883
5.450000,1.489391,2.471022,1.414214,0.564533,0.147233,0.053417,-1.115440,-0.304091,0.085961,1.057937,0.644645,-0.832235,5.535491,-1.031260,0.626608
5.460000,1.494981,2.472479,1.414752,0.553432,0.144224,0.054235,-1.104585,-0.297695,0.077673,1.113179,0.634488,-0.825042,5.526205,-0.998370,0.803286
5.470000,1.500460,2.473906,1.415298,0.542443,0.141278,0.054971,-1.093177,-0.291400,0.069466,1.168378,0.624673,-0.816145,5.512968,-0.964554,0.975241
5.480000,1.505830,2.475305,1.415851,0.531571,0.138395,0.055625,-1.081218,-0.285201,0.061356,1.223423,0.615199,-0.805555,5.495084,-0.930066,1.141920
5.490000,1.511092,2.476675,1.416410,0.520821,0.135574,0.056199,-1.068709,-0.279095,0.053360,1.278262,0.606073,-0.793327,5.471861,-0.895157,1.302771
5.500000,1.516247,2.478016,1.416975,0.510198,0.132813,0.056693,-1.055654,-0.273078,0.045495,1.332840,0.597296,-0.779521,5.442604,-0.860078,1.457240
5.510000,1.521296,2.479331,1.417544,0.499709,0.130112,0.057109,-1.042054,-0.267148,0.037776,1.387040,0.588866,-0.764147,5.407943,-0.824970,1.603316
5.520000,1.526242,2.480619,1.418117,0.489359,0.127470,0.057449,-1.027914,-0.261300,0.030217,1.440914,0.580791,-0.747414,5.365697,-0.790209,1.742084
5.530000,1.531084,2.481881,1.418693,0.479153,0.124886,0.057714,-1.013237,-0.255531,0.022832,1.494325,0.573060,-0.729331,5.315011,-0.756061,1.873170
5.540000,1.535825,2.483117,1.419271,0.469096,0.122359,0.057906,-0.998029,-0.249837,0.015634,1.547184,0.565667,-0.709977,5.255028,-0.722792,1.996203
5.550000,1.540466,2.484328,1.419851,0.459194,0.119889,0.058027,-0.982296,-0.244216,0.008636,1.599392,0.558601,-0.689435,5.184891,-0.690667,2.110806
5.560000,1.545010,2.485515,1.420431,0.449452,0.117475,0.058079,-0.966044,-0.238664,0.001850,1.650809,0.551848,-0.667719,5.104648,-0.659932,2.214812
5.570000,1.549456,2.486678,1.421012,0.439875,0.115115,0.058065,-0.949283,-0.233178,-0.004715,1.701405,0.545395,-0.645088,5.012429,-0.630874,2.309863
5.580000,1.553808,2.487817,1.421592,0.430468,0.112811,0.057986,-0.932020,-0.227756,-0.011049,1.751014,0.539224,-0.621552,4.907267,-0.603761,2.395802
5.590000,1.558066,2.488934,1.422171,0.421236,0.110560,0.057845,-0.914266,-0.222393,-0.017143,1.799504,0.533313,-0.597203,4.788195,-0.578860,2.472478
5.600000,1.562233,2.490029,1.422749,0.412184,0.108363,0.057644,-0.896034,-0.217088,-0.022990,1.846729,0.527639,-0.572134,4.654247,-0.556439,2.539736
5.610000,1.566310,2.491101,1.423324,0.403317,0.106218,0.057386,-0.877336,-0.211840,-0.028583,1.892522,0.522179,-0.546368,4.504809,-0.536877,2.595599
5.620000,1.570300,2.492153,1.423896,0.394639,0.104126,0.057073,-0.858189,-0.206644,-0.033916,1.936753,0.516896,-0.520173,4.338518,-0.520316,2.641959
5.630000,1.574204,2.493184,1.424465,0.386155,0.102085,0.056708,-0.838607,-0.201501,-0.038985,1.979233,0.511762,-0.493561,4.154364,-0.507011,2.678885
5.640000,1.578024,2.494195,1.425030,0.377868,0.100096,0.056294,-0.818610,-0.196409,-0.043786,2.019777,0.506744,-0.466626,3.951336,-0.497216,2.706447
5.650000,1.581762,2.495186,1.425591,0.369784,0.098157,0.055833,-0.798219,-0.191366,-0.048317,2.058193,0.501805,-0.439463,3.728426,-0.491185,2.724714
5.660000,1.585420,2.496158,1.426147,0.361905,0.096268,0.055329,-0.777454,-0.186372,-0.052574,2.094288,0.496925,-0.412101,3.484336,-0.489617,2.732201
5.670000,1.589001,2.497112,1.426698,0.354236,0.094429,0.054783,-0.756341,-0.181427,-0.056559,2.127820,0.492019,-0.384779,3.218379,-0.492266,2.730721
5.680000,1.592505,2.498047,1.427243,0.346779,0.092639,0.054199,-0.734907,-0.176532,-0.060270,2.158579,0.487065,-0.357516,2.929578,-0.499331,2.720533
5.690000,1.595937,2.498965,1.427781,0.339539,0.090898,0.053578,-0.713180,-0.171686,-0.063709,2.186332,0.482017,-0.330397,2.616960,-0.511013,2.701899
5.700000,1.599297,2.499865,1.428314,0.332517,0.089205,0.052925,-0.691191,-0.166892,-0.066879,2.210836,0.476828,-0.303505,2.279549,-0.527510,2.675076
5.710000,1.602588,2.500749,1.428840,0.325716,0.087560,0.052242,-0.668974,-0.162150,-0.069780,2.231904,0.471535,-0.276879,1.914689,-0.551168,2.639259
5.720000,1.605812,2.501617,1.429359,0.319138,0.085962,0.051530,-0.646566,-0.157462,-0.072418,2.249116,0.465884,-0.250697,1.523292,-0.579777,2.595904
5.730000,1.608971,2.502468,1.429870,0.312785,0.084411,0.050794,-0.624005,-0.152833,-0.074796,2.262279,0.459923,-0.224985,1.104590,-0.613275,2.545400
5.740000,1.612068,2.503305,1.430375,0.306658,0.082905,0.050035,-0.601335,-0.148265,-0.076919,2.271114,0.453603,-0.199812,0.657815,-0.651597,2.488137
5.750000,1.615105,2.504127,1.430871,0.300758,0.081445,0.049257,-0.578598,-0.143762,-0.078794,2.275339,0.446875,-0.175244,0.182196,-0.694681,2.424505
5.760000,1.618084,2.504934,1.431360,0.295086,0.080030,0.048460,-0.555841,-0.139324,-0.080426,2.274985,0.440121,-0.151323,-0.331266,-0.753267,2.354416
5.770000,1.621008,2.505727,1.431840,0.289641,0.078658,0.047649,-0.533116,-0.134962,-0.081823,2.268983,0.432281,-0.128152,-0.874101,-0.815165,2.278797
5.780000,1.623878,2.506507,1.432313,0.284423,0.077330,0.046825,-0.510480,-0.130681,-0.082992,2.257406,0.423811,-0.105764,-1.446068,-0.878989,2.198094
5.790000,1.626697,2.507274,1.432777,0.279431,0.076044,0.045990,-0.487988,-0.126488,-0.083941,2.239965,0.414700,-0.084206,-2.046930,-0.943352,2.112757
5.800000,1.629467,2.508028,1.433232,0.274663,0.074800,0.045147,-0.465701,-0.122389,-0.084679,2.216372,0.404947,-0.063523,-2.676446,-1.006868,2.023234
5.810000,1.632191,2.508770,1.433680,0.270116,0.073596,0.044297,-0.443663,-0.118369,-0.085214,2.188024,0.396580,-0.043757,-3.376858,-1.118922,1.930049
5.820000,1.634870,2.509500,1.434118,0.265788,0.072432,0.043443,-0.421964,-0.114461,-0.085557,2.150655,0.384868,-0.024936,-4.100245,-1.221140,1.833564
5.830000,1.637508,2.510219,1.434548,0.261675,0.071306,0.042586,-0.400675,-0.110675,-0.085716,2.105960,0.372215,-0.007095,-4.841165,-1.305918,1.734219
5.840000,1.640105,2.510927,1.434970,0.257773,0.070218,0.041729,-0.379870,-0.107019,-0.085702,2.053791,0.358833,0.009740,-5.594177,-1.365653,1.632454
5.850000,1.642664,2.511623,1.435383,0.254076,0.069165,0.040873,-0.359624,-0.103500,-0.085525,1.994055,0.345011,0.025547,-6.353840,-1.392743,1.528706
5.860000,1.645187,2.512310,1.435787,0.250578,0.068147,0.040019,-0.340014,-0.100119,-0.085195,1.926711,0.331112,0.040309,-7.114712,-1.379584,1.423415
5.870000,1.647676,2.512987,1.436183,0.247273,0.067162,0.039169,-0.321115,-0.096876,-0.084722,1.851774,0.317579,0.054012,-7.871353,-1.318572,1.317021
5.880000,1.650133,2.513653,1.436571,0.244153,0.066209,0.038325,-0.303004,-0.093765,-0.084118,1.769316,0.304926,0.066647,-8.618322,-1.202106,1.209961
5.890000,1.652560,2.514311,1.436950,0.241210,0.065287,0.037487,-0.285754,-0.090773,-0.083393,1.679458,0.293747,0.078211,-9.350178,-1.022581,1.102675
5.900000,1.654958,2.514959,1.437321,0.238435,0.064394,0.036658,-0.269439,-0.087883,-0.082558,1.582381,0.284710,0.088702,-10.061479,-0.772394,0.995603
5.910000,1.657329,2.515599,1.437683,0.235818,0.063529,0.035837,-0.254129,-0.085069,-0.081623,1.478315,0.278560,0.098125,-10.746784,-0.443943,0.889182
5.920000,1.659674,2.516230,1.438037,0.233349,0.062692,0.035025,-0.239895,-0.082299,-0.080599,1.367550,0.276117,0.106489,-11.400653,-0.029623,0.783852
5.930000,1.661996,2.516853,1.438384,0.231016,0.061883,0.034225,-0.226800,-0.079531,-0.079496,1.250425,0.278279,0.113807,-12.017644,0.478167,0.680053
5.940000,1.664295,2.517468,1.438722,0.228809,0.061102,0.033436,-0.214906,-0.076715,-0.078326,1.127338,0.286017,0.120096,-12.592317,1.087031,0.578222
5.950000,1.666573,2.518075,1.439052,0.226714,0.060349,0.032659,-0.204271,-0.073789,-0.077098,0.998738,0.300382,0.125379,-13.119229,1.804573,0.478800
5.960000,1.668830,2.518675,1.439375,0.224719,0.059626,0.031894,-0.194948,-0.070681,-0.075822,0.865131,0.322497,0.129682,-13.592941,2.638395,0.382224
5.970000,1.671067,2.519267,1.439690,0.222811,0.058936,0.031142,-0.186983,-0.067309,-0.074507,0.727075,0.353563,0.133035,-14.008010,3.596101,0.288935
5.980000,1.673286,2.519854,1.439998,0.220975,0.058281,0.030404,-0.180419,-0.063576,-0.073164,0.585184,0.394857,0.135473,-14.358996,4.685294,0.199370
5.990000,1.675487,2.520433,1.440298,0.219197,0.057666,0.029679,-0.175290,-0.059373,-0.071801,0.440127,0.447732,0.137036,-14.640458,5.913576,0.113970
6.000000,1.677670,2.521007,1.440592,0.217464,0.057096,0.028968,-0.171625,-0.054578,-0.070426,0.292625,0.513617,0.137768,-14.846955,7.288552,0.033173
