time,x,y,z,vx,vy,vz,ax,ay,az,jx,jy,jz,sx,sy,sz,roll,pitch,yaw,p,q,r
0.000000,-2.056827,-1.334158,-1.409904,0.017727,0.009286,-0.007834,-0.838542,-0.082235,0.066742,18.360373,-1.167040,-0.411372,-294.178326,171.704723,39.205780,-0.008409,0.085852,0.000000,-0.120331,-1.874104,-0.000000
0.010000,-2.056689,-1.334070,-1.409979,0.010212,0.008433,-0.007181,-0.668982,-0.085711,0.064512,15.616706,0.433392,-0.042251,-255.181965,148.715277,34.668115,-0.008774,0.068538,0.000000,0.043440,-1.595174,-0.000000
0.020000,-2.056618,-1.333989,-1.410047,0.004262,0.007621,-0.006533,-0.524970,-0.074300,0.065751,13.244495,1.813787,0.282971,-219.857309,127.682212,30.424486,-0.007614,0.053823,0.000000,0.185083,-1.353679,0.000000
0.030000,-2.056599,-1.333917,-1.410109,-0.000361,0.006989,-0.005856,-0.402974,-0.050105,0.070035,11.207913,2.993252,0.567183,-188.026480,108.513761,26.464357,-0.005140,0.041350,0.000000,0.306503,-1.146327,0.000000
0.040000,-2.056621,-1.333849,-1.410164,-0.003860,0.006655,-0.005123,-0.299807,-0.015044,0.076967,9.472912,3.989972,0.813168,-159.511602,91.118158,22.777197,-0.001545,0.030793,0.000000,0.409571,-0.969780,0.000000
0.050000,-2.056673,-1.333782,-1.410211,-0.006410,0.006719,-0.004309,-0.212618,0.029143,0.086180,8.007221,4.821218,1.023602,-134.134799,75.403637,19.352471,0.002996,0.021862,0.000000,0.496061,-0.820767,0.000000
0.060000,-2.056747,-1.333713,-1.410250,-0.008157,0.007263,-0.003393,-0.138867,0.080883,0.097329,6.780349,5.503342,1.201057,-111.718192,61.278433,16.179648,0.008327,0.014297,0.000000,0.567630,-0.696159,0.000000
0.070000,-2.056834,-1.333635,-1.410279,-0.009225,0.008357,-0.002357,-0.076311,0.138764,0.110099,5.763583,6.051779,1.347999,-92.083906,48.650780,13.248192,0.014304,0.007867,0.000000,0.625808,-0.592999,-0.000000
0.080000,-2.056929,-1.333543,-1.410297,-0.009714,0.010055,-0.001187,-0.022985,0.201522,0.124196,4.929989,6.481044,1.466790,-75.054063,37.428911,10.547572,0.020803,0.002373,0.000000,0.672011,-0.508519,0.000000
0.090000,-2.057027,-1.333432,-1.410302,-0.009709,0.012400,0.000130,0.022816,0.268033,0.139349,4.254413,6.804737,1.559685,-60.450786,27.521060,8.067254,0.027709,-0.002359,0.000000,0.707544,-0.440139,0.000000
0.100000,-2.057122,-1.333293,-1.410294,-0.009278,0.015425,0.001603,0.062552,0.337307,0.155310,3.713478,7.035539,1.628835,-48.096199,18.835462,5.796704,0.034922,-0.006479,0.000000,0.733613,-0.385471,0.000000
0.110000,-2.057211,-1.333121,-1.410269,-0.008474,0.019152,0.003238,0.097462,0.408474,0.171853,3.285586,7.185215,1.676283,-37.812425,11.280351,3.725390,0.042353,-0.010112,0.000000,0.751334,-0.342310,-0.000000
0.120000,-2.057290,-1.332908,-1.410228,-0.007341,0.023598,0.005041,0.128574,0.480777,0.188770,2.950920,7.264609,1.703971,-29.421586,4.763961,1.842778,0.049924,-0.013363,0.000000,0.761734,-0.308636,0.000000
0.130000,-2.057357,-1.332647,-1.410168,-0.005913,0.028770,0.007014,0.156731,0.553565,0.205873,2.691438,7.283650,1.713733,-22.745807,-0.805475,0.138335,0.057567,-0.016318,0.000000,0.765760,-0.282605,-0.000000
0.140000,-2.057408,-1.332330,-1.410087,-0.004214,0.034669,0.009159,0.182599,0.626279,0.222991,2.490880,7.251350,1.707297,-17.607210,-5.519721,-1.398473,0.065221,-0.019044,0.000000,0.764279,-0.262555,0.000000
0.150000,-2.057440,-1.331951,-1.409984,-0.002267,0.041293,0.011474,0.206696,0.698448,0.239970,2.334763,7.175801,1.686287,-13.827917,-9.470545,-2.778178,0.072837,-0.021595,0.000000,0.758076,-0.247000,-0.000000
0.160000,-2.057452,-1.331502,-1.409857,-0.000085,0.048635,0.013957,0.229400,0.769675,0.256673,2.210383,7.064178,1.652222,-11.230054,-12.749712,-4.011314,0.080369,-0.024008,0.000000,0.747857,-0.234631,-0.000000
0.170000,-2.057441,-1.330976,-1.409705,0.002318,0.056683,0.016606,0.250973,0.839632,0.272976,2.106816,6.922739,1.606514,-9.635741,-15.448987,-5.108414,0.087783,-0.026310,0.000000,0.734246,-0.224319,0.000000
0.180000,-2.057405,-1.330366,-1.409525,0.004931,0.065422,0.019415,0.271575,0.908048,0.288769,2.014916,6.756825,1.550472,-8.867103,-17.660138,-6.080012,0.095045,-0.028515,0.000000,0.717784,-0.215117,-0.000000
0.190000,-2.057342,-1.329665,-1.409316,0.007746,0.074838,0.022379,0.291285,0.974702,0.303955,1.927315,6.570858,1.485297,-8.746263,-19.474930,-6.936641,0.102130,-0.030633,0.000000,0.698926,-0.206259,-0.000000
0.200000,-2.057250,-1.328867,-1.409077,0.010754,0.084910,0.025492,0.310117,1.039410,0.318448,1.838424,6.368342,1.412087,-9.095344,-20.985128,-7.688833,0.109017,-0.032661,0.000000,0.678042,-0.197162,-0.000000
0.210000,-2.057126,-1.327965,-1.408806,0.013957,0.095611,0.028745,0.327594,1.102322,0.332179,1.703663,6.179533,1.332410,-8.706668,-22.981339,-8.361669,0.115717,-0.034551,0.000000,0.658316,-0.183158,0.000000
0.220000,-2.056970,-1.326953,-1.408501,0.017317,0.106939,0.032132,0.344199,1.162938,0.345075,1.617517,5.940602,1.245787,-8.558256,-24.770917,-8.949354,0.122175,-0.036350,0.000000,0.633063,-0.174143,0.000000
0.230000,-2.056779,-1.325824,-1.408162,0.020838,0.118861,0.035644,0.359946,1.221078,0.357077,1.531870,5.684783,1.153677,-8.598332,-26.360055,-9.460641,0.128371,-0.038059,0.000000,0.605785,-0.165089,-0.000000
0.240000,-2.056553,-1.324573,-1.407788,0.024513,0.131352,0.039271,0.374833,1.276584,0.368133,1.445095,5.414049,1.056800,-8.775114,-27.754947,-9.904281,0.134285,-0.039678,0.000000,0.576709,-0.155832,0.000000
0.250000,-2.056289,-1.323195,-1.407377,0.028332,0.144384,0.043003,0.388841,1.329316,0.378199,1.356084,5.130311,0.955788,-9.036825,-28.961786,-10.289026,0.139900,-0.041203,0.000000,0.546060,-0.146261,-0.000000
0.260000,-2.055986,-1.321684,-1.406928,0.032291,0.157928,0.046831,0.401807,1.379164,0.387250,1.251581,4.836436,0.852454,-9.011759,-30.012448,-10.655640,0.145203,-0.042616,0.000000,0.514189,-0.134999,0.000000
0.270000,-2.055642,-1.320035,-1.406440,0.036370,0.171957,0.050744,0.413873,1.426012,0.395236,1.161498,4.531804,0.744255,-9.007238,-30.884301,-10.976945,0.150180,-0.043932,0.000000,0.480993,-0.125175,0.000000
0.280000,-2.055258,-1.318243,-1.405912,0.040565,0.186438,0.054732,0.425037,1.469774,0.402125,1.071410,4.219336,0.633050,-9.010659,-31.580391,-11.257771,0.154820,-0.045148,0.000000,0.446828,-0.115291,0.000000
0.290000,-2.054831,-1.316305,-1.405345,0.044867,0.201342,0.058783,0.435301,1.510379,0.407889,0.981300,3.900772,0.519219,-9.009418,-32.103769,-11.502952,0.159114,-0.046265,0.000000,0.411901,-0.105350,0.000000
0.300000,-2.054360,-1.314215,-1.404737,0.049268,0.216635,0.062886,0.444664,1.547775,0.412502,0.891279,3.577826,0.403094,-8.990910,-32.457483,-11.717320,0.163056,-0.047282,0.000000,0.376412,-0.095373,0.000000
0.310000,-2.053845,-1.311971,-1.404087,0.053759,0.232287,0.067029,0.453086,1.581911,0.415958,0.797761,3.250798,0.286268,-8.846032,-32.609738,-11.938764,0.166640,-0.048194,0.000000,0.340442,-0.084997,0.000000
0.320000,-2.053285,-1.309568,-1.403396,0.058328,0.248263,0.071201,0.460624,1.612788,0.418220,0.710153,2.924607,0.165878,-8.670496,-32.602692,-12.135011,0.169864,-0.049006,0.000000,0.304458,-0.075199,-0.000000
0.330000,-2.052678,-1.307005,-1.402663,0.062968,0.264532,0.075389,0.467296,1.640406,0.419270,0.624456,2.599251,0.043649,-8.463514,-32.443663,-12.306847,0.172729,-0.049720,0.000000,0.268507,-0.065573,0.000000
0.340000,-2.052025,-1.304277,-1.401888,0.067671,0.281060,0.079582,0.473121,1.664781,0.419088,0.540990,2.276216,-0.080180,-8.224299,-32.139965,-12.455055,0.175235,-0.050338,0.000000,0.232761,-0.056159,0.000000
0.350000,-2.051325,-1.301383,-1.401071,0.072428,0.297817,0.083767,0.478124,1.685943,0.417661,0.460080,1.956910,-0.205376,-7.952062,-31.698915,-12.580421,0.177386,-0.050862,0.000000,0.197383,-0.046999,0.000000
0.360000,-2.050576,-1.298320,-1.400213,0.077231,0.314769,0.087931,0.482321,1.703929,0.414986,0.381001,1.642003,-0.330864,-7.619234,-31.110950,-12.705220,0.179184,-0.051293,0.000000,0.162476,-0.038025,-0.000000
0.370000,-2.049780,-1.295087,-1.399313,0.082072,0.331885,0.092062,0.485756,1.718805,0.411040,0.306604,1.334339,-0.458442,-7.255090,-30.402330,-12.806115,0.180637,-0.051636,0.000000,0.128307,-0.029532,0.000000
0.380000,-2.048935,-1.291682,-1.398372,0.086944,0.349135,0.096147,0.488465,1.730641,0.405814,0.235995,1.034327,-0.586901,-6.862119,-29.582437,-12.881257,0.181753,-0.051895,0.000000,0.094953,-0.021435,-0.000000
0.390000,-2.048041,-1.288104,-1.397390,0.091839,0.366488,0.100174,0.490489,1.739520,0.399300,0.169450,0.743030,-0.715975,-6.442813,-28.660653,-12.928799,0.182540,-0.052073,0.000000,0.062539,-0.013770,-0.000000
0.400000,-2.047098,-1.284352,-1.396369,0.096752,0.383916,0.104129,0.491869,1.745534,0.391494,0.107218,0.461422,-0.845378,-5.999665,-27.646360,-12.946894,0.183007,-0.052176,0.000000,0.031180,-0.006567,0.000000
0.410000,-2.046106,-1.280425,-1.395308,0.101675,0.401389,0.107999,0.492646,1.748784,0.382395,0.049338,0.190358,-0.974617,-5.530378,-26.548388,-12.938533,0.183167,-0.052208,0.000000,0.000982,0.000166,-0.000000
0.420000,-2.045065,-1.276324,-1.394209,0.106603,0.418882,0.111773,0.492871,1.749379,0.372002,-0.003542,-0.069325,-1.103821,-5.042818,-25.376740,-12.896439,0.183031,-0.052175,0.000000,-0.027963,0.006357,-0.000000
0.430000,-2.043974,-1.272048,-1.393073,0.111531,0.436369,0.115435,0.492592,1.747437,0.360320,-0.051468,-0.316962,-1.232425,-4.540062,-24.140863,-12.818171,0.182612,-0.052081,0.000000,-0.055569,0.012009,0.000000
0.440000,-2.042834,-1.267597,-1.391901,0.116453,0.453823,0.118975,0.491859,1.743082,0.347357,-0.094303,-0.551959,-1.360055,-4.025188,-22.850208,-12.701291,0.181924,-0.051932,0.000000,-0.081759,0.017103,-0.000000
0.450000,-2.041645,-1.262971,-1.390694,0.121366,0.471223,0.122378,0.490723,1.736442,0.333124,-0.131941,-0.773815,-1.486314,-3.501274,-21.514225,-12.543357,0.180982,-0.051735,0.000000,-0.106469,0.021626,0.000000
0.460000,-2.040407,-1.258172,-1.389454,0.126266,0.488545,0.125633,0.489239,1.727655,0.317632,-0.164201,-0.981743,-1.611164,-2.974103,-20.151983,-12.332176,0.179800,-0.051495,0.000000,-0.129613,0.025559,0.000000
0.470000,-2.039120,-1.253201,-1.388182,0.131150,0.505769,0.128727,0.487457,1.716853,0.300908,-0.191292,-1.176333,-1.733244,-2.443717,-18.762134,-12.076257,0.178395,-0.051217,0.000000,-0.151222,0.028917,-0.000000
0.480000,-2.037784,-1.248057,-1.386880,0.136015,0.522876,0.131647,0.485431,1.704175,0.282977,-0.213074,-1.356922,-1.852536,-1.912861,-17.352949,-11.774355,0.176781,-0.050909,0.000000,-0.171225,0.031688,-0.000000
0.490000,-2.036399,-1.242744,-1.385549,0.140858,0.539847,0.134382,0.483213,1.689762,0.263868,-0.229557,-1.523356,-1.968573,-1.384283,-15.932700,-11.425225,0.174976,-0.050576,0.000000,-0.189597,0.033872,0.000000
0.500000,-2.034967,-1.237261,-1.384193,0.145679,0.556665,0.136921,0.480857,1.673755,0.243618,-0.240776,-1.675566,-2.080878,-0.860729,-14.509658,-11.027621,0.172995,-0.050223,0.000000,-0.206324,0.035474,0.000000
0.510000,-2.033486,-1.231611,-1.382812,0.150475,0.573317,0.139251,0.478417,1.656305,0.222257,-0.246573,-1.812924,-2.189664,-0.350620,-13.108330,-10.562519,0.170856,-0.049858,0.000000,-0.221349,0.036482,0.000000
0.520000,-2.031957,-1.225795,-1.381408,0.155247,0.589787,0.141363,0.475943,1.637543,0.199841,-0.247568,-1.937047,-2.292760,0.149667,-11.718765,-10.048631,0.168573,-0.049485,0.000000,-0.234802,0.036953,-0.000000
0.530000,-2.030381,-1.219816,-1.379985,0.159994,0.606064,0.143245,0.473483,1.617610,0.176420,-0.243619,-2.047360,-2.390477,0.638081,-10.347246,-9.486886,0.166165,-0.049110,0.000000,-0.246637,0.036879,-0.000000
0.540000,-2.028757,-1.213675,-1.378544,0.164717,0.622136,0.144888,0.471086,1.596642,0.152051,-0.234853,-2.144073,-2.482341,1.112569,-9.000057,-8.878218,0.163646,-0.048738,0.000000,-0.256878,0.036275,-0.000000
0.550000,-2.027087,-1.207374,-1.377088,0.169416,0.637993,0.146283,0.468801,1.574773,0.126794,-0.221421,-2.227463,-2.567888,1.571079,-7.683481,-8.223558,0.161033,-0.048376,0.000000,-0.265555,0.035161,0.000000
0.560000,-2.025369,-1.200916,-1.375619,0.174093,0.653628,0.147421,0.466676,1.552144,0.100708,-0.203224,-2.297075,-2.647377,2.004799,-6.423792,-7.505789,0.158341,-0.048028,0.000000,-0.272639,0.033533,0.000000
0.570000,-2.023605,-1.194302,-1.374141,0.178750,0.669034,0.148295,0.464751,1.528873,0.073871,-0.181087,-2.355182,-2.718670,2.419266,-5.204836,-6.746102,0.155585,-0.047698,0.000000,-0.278338,0.031471,-0.000000
0.580000,-2.021794,-1.187536,-1.372654,0.183389,0.684204,0.148896,0.463067,1.505080,0.046360,-0.154907,-2.401320,-2.782170,2.813257,-4.030448,-5.947638,0.152779,-0.047392,0.000000,-0.282630,0.028973,0.000000
0.590000,-2.019937,-1.180619,-1.371164,0.188012,0.699134,0.149220,0.461665,1.480885,0.018255,-0.124894,-2.435952,-2.837504,3.185549,-2.904466,-5.113540,0.149936,-0.047114,0.000000,-0.285573,0.026064,-0.000000
0.600000,-2.018034,-1.173554,-1.369671,0.192623,0.713821,0.149260,0.460582,1.456398,-0.010361,-0.091272,-2.459583,-2.884332,3.534917,-1.830725,-4.246949,0.147071,-0.046866,0.000000,-0.287230,0.022770,0.000000
0.610000,-2.016085,-1.166343,-1.368179,0.197225,0.728261,0.149011,0.459854,1.431737,-0.039407,-0.054019,-2.471946,-2.922826,3.853628,-0.833475,-3.338847,0.144197,-0.046655,0.000000,-0.287596,0.019097,0.000000
0.620000,-2.014090,-1.158989,-1.366692,0.201821,0.742455,0.148471,0.459511,1.406991,-0.068787,-0.013991,-2.475533,-2.951570,4.147766,0.106363,-2.406024,0.141323,-0.046481,0.000000,-0.286919,0.015129,0.000000
0.630000,-2.012048,-1.151495,-1.365211,0.206417,0.756401,0.147635,0.459584,1.382256,-0.098407,0.028853,-2.470014,-2.970880,4.416904,0.987450,-1.453113,0.138462,-0.046350,0.000000,-0.285191,0.010867,-0.000000
0.640000,-2.009961,-1.143862,-1.363740,0.211015,0.770100,0.146502,0.460097,1.357620,-0.128173,0.074262,-2.455984,-2.980580,4.660615,1.808452,-0.484743,0.135623,-0.046263,0.000000,-0.282487,0.006340,-0.000000
0.650000,-2.007828,-1.136094,-1.362282,0.215620,0.783554,0.145071,0.461076,1.333163,-0.157986,0.121980,-2.434050,-2.980539,4.878473,2.568032,0.494454,0.132815,-0.046223,0.000000,-0.278886,0.001576,-0.000000
0.660000,-2.005649,-1.128192,-1.360840,0.220238,0.796764,0.143343,0.462546,1.308970,-0.187752,0.171948,-2.404147,-2.970798,5.064915,3.247537,1.483074,0.130048,-0.046232,0.000000,-0.274402,-0.003415,0.000000
0.670000,-2.003423,-1.120159,-1.359416,0.224873,0.809734,0.141317,0.464521,1.285102,-0.217369,0.223420,-2.368533,-2.951017,5.225280,3.865068,2.472864,0.127329,-0.046292,0.000000,-0.269268,-0.008559,0.000000
0.680000,-2.001151,-1.111998,-1.358014,0.229530,0.822468,0.138996,0.467019,1.261619,-0.246739,0.276367,-2.327050,-2.921354,5.359769,4.421409,3.458800,0.124665,-0.046405,0.000000,-0.263489,-0.013853,-0.000000
0.690000,-1.998833,-1.103711,-1.356637,0.234215,0.834968,0.136383,0.470053,1.238578,-0.275764,0.330530,-2.280306,-2.881871,5.468585,4.917344,4.435855,0.122062,-0.046572,0.000000,-0.257140,-0.019268,-0.000000
0.700000,-1.996467,-1.095299,-1.355287,0.238933,0.847241,0.133482,0.473633,1.216029,-0.304345,0.385654,-2.228901,-2.832683,5.551930,5.353658,5.399002,0.119524,-0.046794,0.000000,-0.250294,-0.024782,-0.000000
0.710000,-1.994054,-1.086767,-1.353968,0.243689,0.859291,0.130298,0.477769,1.194019,-0.332383,0.441606,-2.172975,-2.773735,5.606945,5.719675,6.337694,0.117058,-0.047071,0.000000,-0.242979,-0.030381,-0.000000
0.720000,-1.991593,-1.078114,-1.352682,0.248490,0.871123,0.126837,0.482466,1.172580,-0.359788,0.497847,-2.114185,-2.705760,5.637268,6.029043,7.253103,0.114666,-0.047406,0.000000,-0.235373,-0.036012,-0.000000
0.730000,-1.989084,-1.069345,-1.351433,0.253340,0.882744,0.123105,0.487727,1.151744,-0.386468,0.554271,-2.052576,-2.628765,5.643477,6.283948,8.140881,0.112351,-0.047796,0.000000,-0.227491,-0.041667,-0.000000
0.740000,-1.986526,-1.060460,-1.350221,0.258246,0.894160,0.119110,0.493552,1.131536,-0.412335,0.610638,-1.988680,-2.543049,5.626148,6.486579,8.996677,0.110117,-0.048244,0.000000,-0.219394,-0.047325,0.000000
0.750000,-1.983919,-1.051462,-1.349051,0.263213,0.905377,0.114861,0.499939,1.111977,-0.437301,0.666717,-1.923011,-2.448953,5.585859,6.639122,9.816143,0.107964,-0.048749,0.000000,-0.211141,-0.052966,-0.000000
0.760000,-1.981261,-1.042353,-1.347925,0.268247,0.916402,0.110367,0.506885,1.093082,-0.461282,0.722319,-1.855878,-2.346395,5.522209,6.739215,10.583142,0.105894,-0.049310,0.000000,-0.202766,-0.058577,0.000000
0.770000,-1.978553,-1.033135,-1.346845,0.273353,0.927241,0.105639,0.514383,1.074862,-0.484204,0.777132,-1.788174,-2.236909,5.436872,6.794153,11.306554,0.103909,-0.049927,0.000000,-0.194373,-0.064126,-0.000000
0.780000,-1.975794,-1.023809,-1.345813,0.278536,0.937901,0.100687,0.522424,1.057320,-0.505997,0.830987,-1.720136,-2.120419,5.330546,6.806681,11.983475,0.102007,-0.050599,0.000000,-0.185985,-0.069601,0.000000
0.790000,-1.972982,-1.014377,-1.344832,0.283803,0.948390,0.095523,0.530998,1.040459,-0.526591,0.883676,-1.652173,-1.997404,5.203926,6.779543,12.610997,0.100189,-0.051326,0.000000,-0.177646,-0.074987,0.000000
0.800000,-1.970118,-1.004842,-1.343903,0.289158,0.958713,0.090159,0.540093,1.024275,-0.545925,0.935000,-1.584668,-1.868374,5.057710,6.715484,13.186215,0.098454,-0.052106,0.000000,-0.169396,-0.080267,-0.000000
0.810000,-1.967199,-0.995204,-1.343029,0.294607,0.968877,0.084608,0.549693,1.008762,-0.563934,0.984747,-1.518038,-1.733287,4.893101,6.618800,13.691635,0.096800,-0.052938,0.000000,-0.161272,-0.085429,0.000000
0.820000,-1.964225,-0.985465,-1.342211,0.300154,0.978890,0.078885,0.559782,0.993911,-0.580575,1.032779,-1.452467,-1.594077,4.710226,6.490493,14.140726,0.095228,-0.053822,0.000000,-0.153307,-0.090455,-0.000000
0.830000,-1.961196,-0.975626,-1.341452,0.305804,0.988758,0.073002,0.570342,0.979708,-0.595802,1.078893,-1.388326,-1.450664,4.509722,6.333120,14.532366,0.093734,-0.054755,0.000000,-0.145531,-0.095333,-0.000000
0.840000,-1.958109,-0.965690,-1.340752,0.311562,0.998486,0.066974,0.581353,0.966138,-0.609576,1.122916,-1.325893,-1.303625,4.292223,6.149234,14.865436,0.092316,-0.055737,0.000000,-0.137972,-0.100049,-0.000000
0.850000,-1.954964,-0.955657,-1.340113,0.317432,1.008082,0.060815,0.592793,0.953184,-0.621864,1.164683,-1.265421,-1.153554,4.058363,5.941391,15.138817,0.090973,-0.056764,0.000000,-0.130653,-0.104589,0.000000
0.860000,-1.951760,-0.945529,-1.339536,0.323419,1.017552,0.054541,0.604638,0.940820,-0.632633,1.203991,-1.207351,-1.000493,3.809803,5.717576,15.337272,0.089702,-0.057836,0.000000,-0.123611,-0.108942,0.000000
0.870000,-1.948495,-0.935306,-1.339022,0.329526,1.026901,0.048167,0.616864,0.929029,-0.641868,1.240782,-1.151377,-0.846379,3.546027,5.474248,15.475526,0.088500,-0.058951,0.000000,-0.116829,-0.113095,-0.000000
0.880000,-1.945169,-0.924991,-1.338573,0.335758,1.036134,0.041709,0.629445,0.917784,-0.649557,1.274862,-1.097925,-0.691181,3.267544,5.213296,15.554187,0.087365,-0.060106,0.000000,-0.110340,-0.117035,-0.000000
0.890000,-1.941780,-0.914584,-1.338188,0.342116,1.045258,0.035181,0.642352,0.907061,-0.655690,1.306086,-1.047163,-0.535492,2.974863,4.936609,15.573865,0.086292,-0.061300,0.000000,-0.104159,-0.120749,0.000000
0.900000,-1.938326,-0.904086,-1.337869,0.348606,1.054277,0.028600,0.655557,0.896832,-0.660267,1.334314,-0.999239,-0.379898,2.668495,4.646077,15.535167,0.085280,-0.062530,0.000000,-0.098300,-0.124225,0.000000
0.910000,-1.934807,-0.893499,-1.337617,0.355228,1.063197,0.021981,0.669028,0.887064,-0.663286,1.359391,-0.954538,-0.224535,2.349459,4.350063,15.427438,0.084325,-0.063793,0.000000,-0.092795,-0.127450,0.000000
0.920000,-1.931221,-0.882823,-1.337430,0.361987,1.072020,0.015340,0.682734,0.877731,-0.664762,1.381238,-0.912563,-0.071032,2.017691,4.043190,15.263930,0.083423,-0.065087,0.000000,-0.087603,-0.130410,-0.000000
0.930000,-1.927567,-0.872059,-1.337310,0.368884,1.080753,0.008691,0.696641,0.868802,-0.664713,1.399704,-0.873707,0.080564,1.673638,3.726555,15.046631,0.082572,-0.066409,0.000000,-0.082759,-0.133093,0.000000
0.940000,-1.923843,-0.861208,-1.337256,0.375920,1.089397,0.002050,0.710716,0.860246,-0.663159,1.414671,-0.838061,0.229728,1.317746,3.401255,14.777530,0.081767,-0.067757,0.000000,-0.078269,-0.135484,-0.000000
0.950000,-1.920048,-0.850271,-1.337269,0.383099,1.097959,-0.004567,0.724922,0.852030,-0.660128,1.426021,-0.805707,0.375949,0.950461,3.068386,14.458615,0.081005,-0.069127,0.000000,-0.074141,-0.137571,-0.000000
0.960000,-1.916180,-0.839249,-1.337347,0.390419,1.106439,-0.011147,0.739224,0.844118,-0.655648,1.433670,-0.776916,0.519023,0.571561,2.734124,14.084737,0.080283,-0.070516,0.000000,-0.070399,-0.139343,0.000000
0.970000,-1.912239,-0.828143,-1.337491,0.397883,1.114842,-0.017676,0.753583,0.836480,-0.649761,1.437448,-0.751271,0.657812,0.182243,2.393866,13.665895,0.079596,-0.071922,0.000000,-0.067008,-0.140777,0.000000
0.980000,-1.908222,-0.816953,-1.337701,0.405491,1.123170,-0.024138,0.767960,0.829082,-0.642507,1.437282,-0.729057,0.792200,-0.216962,2.048085,13.204950,0.078941,-0.073340,0.000000,-0.063993,-0.141863,-0.000000
0.990000,-1.904129,-0.805680,-1.337974,0.413242,1.131424,-0.030521,0.782315,0.821888,-0.633933,1.433077,-0.710326,0.921781,-0.625526,1.697257,12.704764,0.078315,-0.074767,0.000000,-0.061360,-0.142587,0.000000
1.000000,-1.899957,-0.794324,-1.338311,0.421137,1.139608,-0.036812,0.796608,0.814863,-0.624088,1.424742,-0.695127,1.046174,-1.042921,1.341857,12.168199,0.077713,-0.076199,0.000000,-0.059114,-0.142933,-0.000000
1.010000,-1.895706,-0.782888,-1.338710,0.429174,1.147722,-0.042999,0.810797,0.807972,-0.613026,1.412270,-0.683592,1.165142,-1.470607,0.984609,11.595370,0.077131,-0.077633,0.000000,-0.057268,-0.142897,0.000000
1.020000,-1.891373,-0.771370,-1.339170,0.437352,1.155768,-0.049069,0.824839,0.801180,-0.600805,1.395394,-0.675548,1.278103,-1.905823,0.623463,10.992221,0.076566,-0.079064,0.000000,-0.055808,-0.142445,-0.000000
1.030000,-1.886958,-0.759772,-1.339691,0.445670,1.163746,-0.055012,0.838690,0.794449,-0.587485,1.374131,-0.671135,1.384896,-2.347794,0.258618,10.361952,0.076014,-0.080489,0.000000,-0.054749,-0.141570,0.000000
1.040000,-1.882459,-0.748095,-1.340270,0.454126,1.171657,-0.060815,0.852307,0.787745,-0.573129,1.348418,-0.670387,1.485263,-2.795749,-0.109726,9.707760,0.075470,-0.081902,0.000000,-0.054096,-0.140260,-0.000000
1.050000,-1.877875,-0.736340,-1.340907,0.462716,1.179501,-0.066471,0.865643,0.781029,-0.557802,1.318199,-0.673340,1.578982,-3.248914,-0.481369,9.032844,0.074930,-0.083300,0.000000,-0.053854,-0.138501,-0.000000
1.060000,-1.873204,-0.724506,-1.341599,0.471437,1.187277,-0.071968,0.878657,0.774266,-0.541572,1.283540,-0.679994,1.665818,-3.709425,-0.856906,8.341498,0.074391,-0.084678,0.000000,-0.054026,-0.136291,0.000000
1.070000,-1.868446,-0.712594,-1.342345,0.480287,1.194986,-0.077299,0.891299,0.767417,-0.524509,1.244129,-0.690452,1.745715,-4.173246,-1.235246,7.635689,0.073848,-0.086032,0.000000,-0.054622,-0.133593,0.000000
1.080000,-1.863598,-0.700606,-1.343144,0.489262,1.202625,-0.082456,0.903524,0.760444,-0.506682,1.200068,-0.704707,1.818494,-4.639248,-1.616095,6.918483,0.073298,-0.087356,0.000000,-0.055645,-0.130406,-0.000000
1.090000,-1.858660,-0.688542,-1.343994,0.498356,1.210194,-0.087431,0.915285,0.753310,-0.488163,1.151341,-0.722782,1.884056,-5.106302,-1.999154,6.192943,0.072734,-0.088646,0.000000,-0.057099,-0.126721,-0.000000
1.100000,-1.853631,-0.676402,-1.344892,0.507566,1.217691,-0.092217,0.926535,0.745976,-0.469025,1.097942,-0.744697,1.942335,-5.573279,-2.384128,5.462134,0.072154,-0.089895,0.000000,-0.058990,-0.122529,0.000000
1.110000,-1.848509,-0.664188,-1.345838,0.516885,1.225113,-0.096809,0.937229,0.738404,-0.449342,1.039999,-0.770350,1.993140,-6.042089,-2.773737,4.732954,0.071553,-0.091101,0.000000,-0.061310,-0.117831,-0.000000
1.120000,-1.843293,-0.651900,-1.346828,0.526308,1.232458,-0.101202,0.947319,0.730556,-0.429186,0.977245,-0.800040,2.036824,-6.508193,-3.164299,4.004163,0.070926,-0.092256,0.000000,-0.064089,-0.112596,-0.000000
1.130000,-1.837982,-0.639540,-1.347861,0.535829,1.239723,-0.105392,0.956759,0.722390,-0.408630,0.909849,-0.833637,2.073233,-6.970091,-3.555147,3.278356,0.070270,-0.093357,0.000000,-0.067317,-0.106831,0.000000
1.140000,-1.832576,-0.627106,-1.348935,0.545441,1.246904,-0.109374,0.965501,0.713870,-0.387746,0.837862,-0.871142,2.102410,-7.426280,-3.945617,2.558128,0.069579,-0.094397,0.000000,-0.070997,-0.100533,-0.000000
1.150000,-1.827073,-0.614602,-1.350048,0.555137,1.253999,-0.113146,0.973501,0.704955,-0.366606,0.761348,-0.912546,2.124423,-7.875262,-4.335041,1.846072,0.068848,-0.095370,0.000000,-0.075131,-0.093701,0.000000
1.160000,-1.821473,-0.602027,-1.351197,0.564909,1.261002,-0.116705,0.980714,0.695608,-0.345283,0.680476,-0.957684,2.139162,-8.317811,-4.726611,1.149968,0.068075,-0.096273,0.000000,-0.079705,-0.086342,-0.000000
1.170000,-1.815775,-0.589382,-1.352381,0.574748,1.267909,-0.120051,0.987096,0.685788,-0.323845,0.595128,-1.006896,2.147233,-8.749872,-5.115333,0.466592,0.067253,-0.097100,0.000000,-0.084752,-0.078442,-0.000000
1.180000,-1.809978,-0.576669,-1.353598,0.584648,1.274716,-0.123182,0.992603,0.675457,-0.302361,0.505520,-1.059977,2.148543,-9.169663,-5.500068,-0.202098,0.066378,-0.097844,0.000000,-0.090254,-0.070015,0.000000
1.190000,-1.804081,-0.563888,-1.354844,0.594597,1.281417,-0.126098,0.997192,0.664576,-0.280897,0.411782,-1.116881,2.143247,-9.575407,-5.879678,-0.854142,0.065446,-0.098501,0.000000,-0.096208,-0.061068,0.000000
1.200000,-1.798086,-0.551041,-1.356119,0.604588,1.288006,-0.128800,1.000825,0.653107,-0.259518,0.314064,-1.177550,2.131522,-9.965321,-6.253024,-1.487580,0.064452,-0.099066,0.000000,-0.102611,-0.051611,-0.000000
1.210000,-1.791990,-0.538128,-1.357419,0.614611,1.294477,-0.131289,1.003461,0.641014,-0.238289,0.212561,-1.241791,2.113358,-10.338299,-6.622139,-2.095251,0.063393,-0.099534,0.000000,-0.109444,-0.041657,-0.000000
1.220000,-1.785793,-0.525152,-1.358744,0.624654,1.300824,-0.133567,1.005064,0.628259,-0.217270,0.107393,-1.309821,2.089458,-10.691806,-6.982326,-2.681033,0.062262,-0.099899,0.000000,-0.116726,-0.031222,-0.000000
1.230000,-1.779496,-0.512112,-1.360090,0.634708,1.307039,-0.135635,1.005598,0.614805,-0.196519,-0.001204,-1.381403,2.059814,-11.023982,-7.332059,-3.243605,0.061057,-0.100158,0.000000,-0.124434,-0.020323,-0.000000
1.240000,-1.773099,-0.499011,-1.361456,0.644762,1.313117,-0.137498,1.005029,0.600619,-0.176092,-0.113009,-1.456423,2.024667,-11.332965,-7.669812,-3.781643,0.059772,-0.100305,0.000000,-0.132558,-0.008981,0.000000
1.250000,-1.766601,-0.485850,-1.362839,0.654805,1.319049,-0.139159,1.003328,0.585666,-0.156043,-0.227780,-1.534754,1.984268,-11.616892,-7.994059,-4.293826,0.058404,-0.100337,0.000000,-0.141083,0.002778,0.000000
1.260000,-1.760003,-0.472631,-1.364238,0.664825,1.324828,-0.140620,1.000464,0.569914,-0.136425,-0.345316,-1.616203,1.938711,-11.872411,-8.304549,-4.774530,0.056949,-0.100248,0.000000,-0.149990,0.014936,-0.000000
1.270000,-1.753305,-0.459354,-1.365651,0.674810,1.330445,-0.141889,0.996413,0.553332,-0.117285,-0.465200,-1.700732,1.888678,-12.099335,-8.598323,-5.227260,0.055403,-0.100036,0.000000,-0.159268,0.027446,-0.000000
1.280000,-1.746507,-0.446023,-1.367076,0.684749,1.335892,-0.142968,0.991153,0.535890,-0.098666,-0.587202,-1.788108,1.834262,-12.295982,-8.873701,-5.651219,0.053763,-0.099697,0.000000,-0.168895,0.040282,-0.000000
1.290000,-1.739610,-0.432637,-1.368510,0.694629,1.341160,-0.143864,0.984663,0.517561,-0.080613,-0.711013,-1.878139,1.775753,-12.460674,-9.129000,-6.045612,0.052024,-0.099228,0.000000,-0.178846,0.053411,0.000000
1.300000,-1.732615,-0.419200,-1.369952,0.704438,1.346240,-0.144582,0.976928,0.498319,-0.063164,-0.836303,-1.970616,1.713451,-12.591732,-9.362538,-6.409643,0.050185,-0.098627,0.000000,-0.189097,0.066794,-0.000000
1.310000,-1.725522,-0.405713,-1.371401,0.714164,1.351123,-0.145129,0.967932,0.478140,-0.046357,-0.962880,-2.065363,1.647538,-12.683683,-9.571336,-6.739347,0.048241,-0.097890,0.000000,-0.199626,0.080406,-0.000000
1.320000,-1.718332,-0.392178,-1.372854,0.723793,1.355799,-0.145512,0.957668,0.457005,-0.030224,-1.090025,-2.162017,1.578628,-12.739106,-9.755166,-7.037484,0.046191,-0.097016,0.000000,-0.210390,0.094166,-0.000000
1.330000,-1.711046,-0.378598,-1.374311,0.733313,1.360260,-0.145736,0.946130,0.434894,-0.014794,-1.217536,-2.260378,1.506895,-12.756785,-9.912506,-7.303647,0.044033,-0.096004,0.000000,-0.221363,0.108047,0.000000
1.340000,-1.703666,-0.364974,-1.375768,0.742711,1.364494,-0.145810,0.933317,0.411793,-0.000094,-1.345030,-2.360174,1.432663,-12.735504,-10.041832,-7.537428,0.041763,-0.094853,0.000000,-0.232511,0.122001,0.000000
1.350000,-1.696192,-0.351309,-1.377226,0.751975,1.368492,-0.145740,0.919231,0.387687,0.013852,-1.472112,-2.461117,1.356256,-12.674050,-10.141619,-7.738418,0.039382,-0.093562,0.000000,-0.243797,0.135979,0.000000
1.360000,-1.688627,-0.337605,-1.378683,0.761092,1.372244,-0.145535,0.903875,0.362566,0.027024,-1.598607,-2.563061,1.277902,-12.565300,-10.206363,-7.903616,0.036887,-0.092131,0.000000,-0.255201,0.149955,0.000000
1.370000,-1.680971,-0.323865,-1.380137,0.770048,1.375740,-0.145203,0.887263,0.336424,0.039405,-1.723542,-2.665315,1.198179,-12.414668,-10.239009,-8.035525,0.034278,-0.090561,0.000000,-0.266642,0.163817,-0.000000
1.380000,-1.673226,-0.310091,-1.381586,0.778833,1.378970,-0.144750,0.869410,0.309259,0.050983,-1.846759,-2.767730,1.117303,-12.221664,-10.238522,-8.134054,0.031554,-0.088853,0.000000,-0.278098,0.177538,-0.000000
1.390000,-1.665395,-0.296286,-1.383031,0.787432,1.381922,-0.144186,0.850335,0.281070,0.061748,-1.967833,-2.869971,1.035609,-11.985796,-10.203866,-8.199113,0.028716,-0.087009,0.000000,-0.289526,0.191065,-0.000000
1.400000,-1.657478,-0.282453,-1.384470,0.795835,1.384588,-0.143518,0.830062,0.251861,0.071694,-2.086331,-2.971690,0.953433,-11.706571,-10.134004,-8.230611,0.025764,-0.085031,0.000000,-0.300880,0.204342,0.000000
1.410000,-1.649479,-0.268595,-1.385901,0.804030,1.386956,-0.142754,0.808615,0.221637,0.080815,-2.202117,-3.072782,0.870985,-11.375934,-10.021553,-8.225326,0.022698,-0.082922,0.000000,-0.312143,0.217343,0.000000
1.420000,-1.641399,-0.254715,-1.387325,0.812004,1.389017,-0.141904,0.786031,0.190410,0.089114,-2.314042,-3.172283,0.788898,-11.001884,-9.872602,-8.186683,0.019522,-0.080684,0.000000,-0.323204,0.229939,0.000000
1.430000,-1.633240,-0.240816,-1.388739,0.819747,1.390761,-0.140975,0.762347,0.158197,0.096595,-2.422012,-3.270111,0.707362,-10.584854,-9.686893,-8.114973,0.016235,-0.078324,0.000000,-0.334049,0.242108,0.000000
1.440000,-1.625005,-0.226901,-1.390144,0.827247,1.392178,-0.139975,0.737606,0.125015,0.103265,-2.525598,-3.365897,0.626707,-10.125280,-9.464166,-8.010490,0.012841,-0.075843,0.000000,-0.344628,0.253798,0.000000
1.450000,-1.616696,-0.212974,-1.391538,0.834496,1.393258,-0.138912,0.711851,0.090887,0.109133,-2.624377,-3.459270,0.547260,-9.623594,-9.204163,-7.873527,0.009344,-0.073249,0.000000,-0.354898,0.264952,0.000000
1.460000,-1.608315,-0.199037,-1.392922,0.841481,1.393992,-0.137795,0.685132,0.055835,0.114213,-2.718273,-3.550179,0.469154,-9.071575,-8.898456,-7.699572,0.005744,-0.070546,0.000000,-0.364844,0.275556,0.000000
1.470000,-1.599867,-0.185095,-1.394294,0.848195,1.394372,-0.136631,0.657505,0.019894,0.118523,-2.806061,-3.637481,0.393159,-8.479374,-8.555956,-7.494309,0.002048,-0.067740,0.000000,-0.374343,0.285472,-0.000000
1.480000,-1.591352,-0.171151,-1.395654,0.854629,1.394388,-0.135427,0.629031,-0.016903,0.122083,-2.887732,-3.721178,0.319369,-7.848485,-8.177404,-7.258621,-0.001741,-0.064838,0.000000,-0.383388,0.294692,0.000000
1.490000,-1.582775,-0.157209,-1.397003,0.860773,1.394031,-0.134191,0.599772,-0.054516,0.124918,-2.962907,-3.800912,0.248085,-7.180403,-7.763543,-6.993386,-0.005618,-0.061848,0.000000,-0.391937,0.303171,-0.000000
1.500000,-1.574138,-0.143272,-1.398338,0.866622,1.393295,-0.132931,0.569796,-0.092906,0.127054,-3.031221,-3.876334,0.179597,-6.476622,-7.315112,-6.699487,-0.009578,-0.058777,0.000000,-0.399951,0.310865,-0.000000
1.510000,-1.565444,-0.129344,-1.399661,0.872167,1.392171,-0.131652,0.539168,-0.132032,0.128518,-3.092684,-3.947461,0.113917,-5.729576,-6.823770,-6.370978,-0.013616,-0.055633,0.000000,-0.407428,0.317773,-0.000000
1.520000,-1.556696,-0.115429,-1.400971,0.877403,1.390652,-0.130362,0.507967,-0.171839,0.129344,-3.146112,-4.013108,0.051960,-4.950929,-6.300454,-6.016402,-0.017724,-0.052424,0.000000,-0.414246,0.323765,0.000000
1.530000,-1.547897,-0.101532,-1.402268,0.882325,1.388732,-0.129067,0.476272,-0.212276,0.129569,-3.191606,-4.073370,-0.006329,-4.143286,-5.747020,-5.637475,-0.021898,-0.049160,0.000000,-0.420414,0.328854,0.000000
1.540000,-1.539050,-0.087656,-1.403553,0.886927,1.386404,-0.127773,0.444163,-0.253287,0.129231,-3.228889,-4.127954,-0.060715,-3.309249,-5.165322,-5.235915,-0.026131,-0.045849,0.000000,-0.425904,0.333009,-0.000000
1.550000,-1.530159,-0.073805,-1.404824,0.891207,1.383664,-0.126485,0.411722,-0.294815,0.128369,-3.257712,-4.176588,-0.110978,-2.451422,-4.557213,-4.813438,-0.030414,-0.042501,0.000000,-0.430691,0.336207,0.000000
1.560000,-1.521227,-0.059984,-1.406082,0.895161,1.380507,-0.125207,0.379034,-0.336802,0.127022,-3.278136,-4.219321,-0.157206,-1.565113,-3.916873,-4.364531,-0.034742,-0.039124,0.000000,-0.434784,0.338459,0.000000
1.570000,-1.512257,-0.046197,-1.407328,0.898787,1.376927,-0.123945,0.346190,-0.379180,0.125240,-3.289281,-4.255196,-0.198536,-0.661115,-3.254771,-3.899026,-0.039107,-0.035731,0.000000,-0.438092,0.339673,-0.000000
1.580000,-1.503253,-0.032447,-1.408561,0.902085,1.372922,-0.122704,0.313279,-0.421883,0.123067,-3.291311,-4.284353,-0.235139,0.257074,-2.573701,-3.419525,-0.043502,-0.032329,0.000000,-0.440638,0.339876,0.000000
1.590000,-1.494217,-0.018740,-1.409782,0.905053,1.368489,-0.121485,0.280394,-0.464844,0.120553,-3.284103,-4.306616,-0.266889,1.185957,-1.876457,-2.928630,-0.047917,-0.028930,0.000000,-0.442411,0.339059,0.000000
1.600000,-1.485153,-0.005079,-1.410991,0.907693,1.363624,-0.120294,0.247628,-0.507992,0.117746,-3.267568,-4.321837,-0.293683,2.122036,-1.165833,-2.428943,-0.052347,-0.025544,0.000000,-0.443408,0.337223,0.000000
1.610000,-1.476064,0.008531,-1.412188,0.910006,1.358328,-0.119131,0.215073,-0.551258,0.114694,-3.241750,-4.330030,-0.315625,3.064329,-0.441272,-1.918565,-0.056783,-0.022180,0.000000,-0.443639,0.334380,0.000000
1.620000,-1.466954,0.022086,-1.413374,0.911995,1.352599,-0.118000,0.182824,-0.594568,0.111451,-3.206394,-4.330788,-0.332245,4.006517,0.290670,-1.405151,-0.061217,-0.018848,0.000000,-0.443079,0.330513,0.000000
1.630000,-1.457825,0.035582,-1.414548,0.913664,1.346437,-0.116903,0.150976,-0.637849,0.108066,-3.161633,-4.324203,-0.343729,4.944792,1.026790,-0.891854,-0.065642,-0.015560,0.000000,-0.441747,0.325646,0.000000
1.640000,-1.448681,0.049014,-1.415712,0.915017,1.339843,-0.115839,0.119623,-0.681028,0.104593,-3.107524,-4.310249,-0.350093,5.875351,1.763883,-0.381828,-0.070050,-0.012325,0.000000,-0.439656,0.319795,0.000000
1.650000,-1.439526,0.062377,-1.416865,0.916058,1.332817,-0.114811,0.088857,-0.724030,0.101082,-3.044164,-4.288932,-0.351386,6.794387,2.498744,0.121775,-0.074433,-0.009152,0.000000,-0.436820,0.312979,-0.000000
1.660000,-1.430361,0.075669,-1.418008,0.916796,1.325363,-0.113818,0.058771,-0.766781,0.097582,-2.971582,-4.260232,-0.347667,7.695444,3.226655,0.615241,-0.078784,-0.006051,0.000000,-0.433250,0.305213,-0.000000
1.670000,-1.421191,0.088883,-1.419142,0.917236,1.317483,-0.112859,0.029455,-0.809210,0.094144,-2.890200,-4.224360,-0.339099,8.577693,3.946111,1.096045,-0.083095,-0.003032,0.000000,-0.428981,0.296549,-0.000000
1.680000,-1.412017,0.102017,-1.420266,0.917388,1.309180,-0.111934,0.000996,-0.851245,0.090816,-2.800103,-4.181348,-0.325799,9.437653,4.654093,1.561101,-0.087361,-0.000103,0.000000,-0.424030,0.287005,0.000000
1.690000,-1.402844,0.115065,-1.421380,0.917259,1.300459,-0.111042,-0.026519,-0.892814,0.087644,-2.701532,-4.131326,-0.307940,10.271844,5.347582,2.007326,-0.091574,0.002728,0.000000,-0.418422,0.276616,0.000000
1.700000,-1.393673,0.128025,-1.422487,0.916861,1.291325,-0.110181,-0.053007,-0.933848,0.084672,-2.594763,-4.074455,-0.285725,11.076784,6.023559,2.431633,-0.095727,0.005450,0.000000,-0.412186,0.265416,0.000000
1.710000,-1.384508,0.140890,-1.423584,0.916203,1.281784,-0.109348,-0.078385,-0.974279,0.081946,-2.479871,-4.010727,-0.259141,11.843065,6.674032,2.824628,-0.099815,0.008057,0.000000,-0.405333,0.253421,0.000000
1.720000,-1.375350,0.153659,-1.424674,0.915297,1.271842,-0.108541,-0.102580,-1.014042,0.079502,-2.357756,-3.940829,-0.229042,12.573860,7.301564,3.190309,-0.103832,0.010542,0.000000,-0.397935,0.240727,-0.000000
1.730000,-1.366202,0.166326,-1.425755,0.914156,1.261506,-0.107757,-0.125517,-1.053075,0.077376,-2.228521,-3.864780,-0.195433,13.266416,7.903745,3.526363,-0.107772,0.012896,0.000000,-0.390006,0.227351,-0.000000
1.740000,-1.357068,0.178888,-1.426829,0.912791,1.250783,-0.106992,-0.147128,-1.091318,0.075604,-2.092564,-3.782846,-0.158621,13.917977,8.478164,3.830479,-0.111631,0.015113,0.000000,-0.381577,0.213334,0.000000
1.750000,-1.347947,0.191340,-1.427895,0.911218,1.239682,-0.106244,-0.167347,-1.128713,0.074214,-1.950308,-3.695317,-0.118938,14.525790,9.022412,4.100343,-0.115402,0.017187,0.000000,-0.372682,0.198724,-0.000000
1.760000,-1.338844,0.203680,-1.428954,0.909449,1.228212,-0.105507,-0.186111,-1.165203,0.073238,-1.801899,-3.602226,-0.076291,15.079422,9.527000,4.322387,-0.119083,0.019112,0.000000,-0.363332,0.183535,-0.000000
1.770000,-1.329759,0.215903,-1.430005,0.907500,1.216381,-0.104777,-0.203367,-1.200741,0.072695,-1.648538,-3.504575,-0.032112,15.584737,9.997462,4.506934,-0.122668,0.020882,0.000000,-0.353617,0.167887,-0.000000
1.780000,-1.320694,0.228007,-1.431049,0.905387,1.204200,-0.104051,-0.219066,-1.235280,0.072601,-1.490372,-3.402396,0.013720,16.039918,10.432256,4.653049,-0.126154,0.022494,0.000000,-0.343543,0.151795,-0.000000
1.790000,-1.311652,0.239986,-1.432086,0.903124,1.191679,-0.103324,-0.233160,-1.268775,0.072973,-1.327912,-3.296054,0.060817,16.443152,10.829839,4.759799,-0.129537,0.023941,0.000000,-0.333145,0.135306,-0.000000
1.800000,-1.302632,0.251839,-1.433116,0.900729,1.178828,-0.102590,-0.245611,-1.301188,0.073821,-1.161688,-3.185928,0.108782,16.792624,11.188667,4.826251,-0.132816,0.025221,0.000000,-0.322456,0.118470,-0.000000
1.810000,-1.293637,0.263562,-1.434138,0.898218,1.165659,-0.101846,-0.256380,-1.332479,0.075156,-0.991898,-3.072087,0.157751,17.077740,11.498923,4.837671,-0.135985,0.026330,0.000000,-0.311484,0.101303,0.000000
1.820000,-1.284668,0.275151,-1.435153,0.895607,1.152183,-0.101086,-0.265441,-1.362620,0.076975,-0.819929,-2.955717,0.206016,17.306540,11.768351,4.808614,-0.139045,0.027265,0.000000,-0.300323,0.083938,0.000000
1.830000,-1.275726,0.286604,-1.436160,0.892915,1.138411,-0.100305,-0.272772,-1.391585,0.079275,-0.645957,-2.836858,0.253791,17.478283,11.996420,4.739835,-0.141991,0.028025,0.000000,-0.288976,0.066387,0.000000
1.840000,-1.266810,0.297919,-1.437159,0.890158,1.124355,-0.099499,-0.278355,-1.419351,0.082048,-0.470556,-2.715928,0.300683,17.592229,12.182600,4.632090,-0.144824,0.028606,0.000000,-0.277474,0.048700,0.000000
1.850000,-1.257923,0.309091,-1.438149,0.887353,1.110028,-0.098662,-0.282180,-1.445898,0.085284,-0.294307,-2.593348,0.346306,17.647640,12.326359,4.486135,-0.147540,0.029009,0.000000,-0.265849,0.030931,0.000000
1.860000,-1.249063,0.320118,-1.439132,0.884520,1.095441,-0.097792,-0.284236,-1.471210,0.088974,-0.117420,-2.469197,0.390788,17.634151,12.418404,4.289909,-0.150140,0.029231,0.000000,-0.254105,0.013094,-0.000000
1.870000,-1.240232,0.330999,-1.440105,0.881674,1.080607,-0.096882,-0.284530,-1.495280,0.093093,0.058609,-2.344730,0.432559,17.561825,12.468041,4.058552,-0.152622,0.029274,0.000000,-0.242336,-0.004669,-0.000000
1.880000,-1.231430,0.341730,-1.441069,0.878835,1.065539,-0.095928,-0.283067,-1.518103,0.097617,0.233622,-2.219976,0.471850,17.431100,12.475814,3.794391,-0.154987,0.029137,0.000000,-0.230540,-0.022348,0.000000
1.890000,-1.222655,0.352309,-1.442024,0.876019,1.050249,-0.094928,-0.279863,-1.539680,0.102521,0.407038,-2.095351,0.508345,17.242414,12.442265,3.499750,-0.157233,0.028822,0.000000,-0.218748,-0.039889,-0.000000
1.900000,-1.213909,0.362734,-1.442968,0.873243,1.034750,-0.093877,-0.274934,-1.560012,0.107774,0.578279,-1.971266,0.541751,16.996207,12.367937,3.176954,-0.159362,0.028330,0.000000,-0.206987,-0.057239,0.000000
1.910000,-1.205190,0.373003,-1.443901,0.870526,1.019053,-0.092772,-0.268302,-1.579104,0.113348,0.747176,-1.847786,0.572126,16.682717,12.244784,2.820040,-0.161373,0.027662,0.000000,-0.195256,-0.074386,0.000000
1.920000,-1.196498,0.383114,-1.444823,0.867883,1.003172,-0.091609,-0.260002,-1.596973,0.119204,0.912204,-1.726116,0.598447,16.313831,12.082989,2.440636,-0.163267,0.026823,0.000000,-0.183653,-0.091179,0.000000
1.930000,-1.187832,0.393066,-1.445733,0.865331,0.987118,-0.090387,-0.250071,-1.613633,0.125304,1.073273,-1.606250,0.620875,15.891237,11.884148,2.042081,-0.165046,0.025816,0.000000,-0.172170,-0.107611,0.000000
1.940000,-1.179191,0.402856,-1.446630,0.862887,0.970903,-0.089102,-0.238551,-1.629105,0.131608,1.229855,-1.488551,0.639236,15.416623,11.649853,1.627716,-0.166711,0.024643,0.000000,-0.160835,-0.123630,0.000000
1.950000,-1.170574,0.412483,-1.447515,0.860565,0.954540,-0.087754,-0.225490,-1.643412,0.138075,1.381438,-1.373366,0.653388,14.891676,11.381701,1.200881,-0.168263,0.023310,0.000000,-0.149672,-0.139184,-0.000000
1.960000,-1.161980,0.421946,-1.448385,0.858382,0.938039,-0.086340,-0.210937,-1.656578,0.144662,1.527911,-1.260729,0.663279,14.308381,11.073809,0.763495,-0.169705,0.021821,0.000000,-0.138680,-0.154261,-0.000000
1.970000,-1.153406,0.431244,-1.449241,0.856351,0.921412,-0.084861,-0.194952,-1.668637,0.151326,1.667886,-1.151655,0.668702,13.679317,10.736163,0.320492,-0.171038,0.020181,0.000000,-0.127949,-0.168717,-0.000000
1.980000,-1.144852,0.440374,-1.450082,0.854487,0.904669,-0.083314,-0.177601,-1.679623,0.158021,1.801354,-1.046096,0.669682,13.007358,10.371274,-0.124614,-0.172265,0.018398,0.000000,-0.117472,-0.182549,0.000000
1.990000,-1.136316,0.449337,-1.450907,0.852803,0.887823,-0.081700,-0.158948,-1.689572,0.164704,1.927900,-0.944312,0.666215,12.295382,9.981652,-0.568309,-0.173388,0.016478,0.000000,-0.107271,-0.195708,-0.000000
2.000000,-1.127795,0.458130,-1.451716,0.851312,0.870881,-0.080020,-0.139067,-1.698523,0.171331,2.047138,-0.846537,0.658332,11.546263,9.569806,-1.007080,-0.174411,0.014427,0.000000,-0.097367,-0.208152,0.000000
2.010000,-1.119289,0.466754,-1.452508,0.850026,0.853855,-0.078274,-0.118028,-1.706515,0.177854,2.158992,-0.752791,0.645876,10.755777,9.133431,-1.431712,-0.175336,0.012253,0.000000,-0.087758,-0.219866,0.000000
2.020000,-1.110794,0.475207,-1.453281,0.848955,0.836754,-0.076463,-0.095914,-1.713593,0.184234,2.262469,-0.663709,0.629481,9.934770,8.680442,-1.845090,-0.176167,0.009964,0.000000,-0.078517,-0.230741,-0.000000
2.030000,-1.102309,0.483489,-1.454037,0.848111,0.819586,-0.074590,-0.072807,-1.719804,0.190430,2.357598,-0.579227,0.609021,9.086986,8.213939,-2.244398,-0.176908,0.007568,0.000000,-0.069635,-0.240773,0.000000
2.040000,-1.093831,0.491599,-1.454773,0.847502,0.802361,-0.072655,-0.048791,-1.725194,0.196402,2.444132,-0.499465,0.584649,8.216171,7.737022,-2.626822,-0.177561,0.005075,0.000000,-0.061129,-0.249929,0.000000
2.050000,-1.085358,0.499536,-1.455489,0.847138,0.785085,-0.070663,-0.023953,-1.729810,0.202111,2.521857,-0.424511,0.556550,7.326070,7.252791,-2.989545,-0.178132,0.002493,0.000000,-0.053012,-0.258181,-0.000000
2.060000,-1.076888,0.507300,-1.456186,0.847026,0.767767,-0.068614,0.001617,-1.733700,0.207516,2.590684,-0.354414,0.524505,6.418325,6.764116,-3.318932,-0.178623,-0.000168,0.000000,-0.045286,-0.265510,0.000000
2.070000,-1.068417,0.514891,-1.456862,0.847172,0.750413,-0.066513,0.027830,-1.736914,0.212590,2.650279,-0.289222,0.489768,5.499041,6.274353,-3.624312,-0.179039,-0.002900,0.000000,-0.037982,-0.271874,-0.000000
2.080000,-1.059943,0.522309,-1.457516,0.847584,0.733031,-0.064363,0.054592,-1.739501,0.217302,2.700640,-0.228920,0.452104,4.572221,5.786632,-3.904194,-0.179384,-0.005691,0.000000,-0.031097,-0.277268,0.000000
2.090000,-1.051464,0.529552,-1.458149,0.848266,0.715625,-0.062168,0.081812,-1.741509,0.221623,2.741712,-0.173472,0.411774,3.641866,5.304080,-4.157089,-0.179662,-0.008532,0.000000,-0.024635,-0.281679,0.000000
2.100000,-1.042977,0.536621,-1.458759,0.849221,0.698202,-0.059932,0.109395,-1.742986,0.225529,2.773479,-0.122811,0.369057,2.711981,4.829824,-4.381504,-0.179878,-0.011413,0.000000,-0.018598,-0.285099,0.000000
2.110000,-1.034479,0.543516,-1.459347,0.850455,0.680767,-0.057659,0.137249,-1.743983,0.228992,2.795805,-0.077033,0.323758,1.790637,4.371927,-4.563678,-0.180036,-0.014324,0.000000,-0.012997,-0.287508,0.000000
2.120000,-1.025967,0.550236,-1.459912,0.851967,0.663324,-0.055354,0.165281,-1.744542,0.231999,2.809137,-0.035546,0.277335,0.877268,3.927978,-4.715893,-0.180139,-0.017255,0.000000,-0.007802,-0.288950,0.000000
2.130000,-1.017439,0.556782,-1.460454,0.853760,0.645878,-0.053021,0.193401,-1.744708,0.234534,2.813389,0.001581,0.229540,-0.024621,3.500501,-4.838163,-0.180193,-0.020195,0.000000,-0.003019,-0.289413,-0.000000
2.140000,-1.008891,0.563154,-1.460973,0.855835,0.628431,-0.050665,0.221519,-1.744524,0.236586,2.808694,0.034527,0.180672,-0.911527,3.092019,-4.930499,-0.180201,-0.023135,0.000000,0.001360,-0.288909,-0.000000
2.150000,-1.000321,0.569351,-1.461467,0.858191,0.610988,-0.048291,0.249546,-1.744031,0.238145,2.795220,0.063493,0.131030,-1.779945,2.705056,-4.992912,-0.180167,-0.026065,0.000000,0.005348,-0.287454,-0.000000
2.160000,-0.991726,0.575374,-1.461938,0.860825,0.593552,-0.045903,0.277391,-1.743270,0.239201,2.772833,0.088386,0.080525,-2.617906,2.350288,-5.015616,-0.180096,-0.028975,0.000000,0.008932,-0.285033,0.000000
2.170000,-0.983104,0.581222,-1.462385,0.863738,0.576124,-0.043508,0.304975,-1.742275,0.239756,2.742565,0.110220,0.030376,-3.431409,2.021088,-5.009620,-0.179990,-0.031856,0.000000,0.012191,-0.281756,-0.000000
2.180000,-0.974450,0.586896,-1.462809,0.866924,0.558707,-0.041110,0.332216,-1.741077,0.239809,2.704295,0.128898,-0.019575,-4.217984,1.718981,-4.976138,-0.179853,-0.034700,0.000000,0.015114,-0.277613,-0.000000
2.190000,-0.965764,0.592396,-1.463208,0.870380,0.541303,-0.038714,0.359035,-1.739706,0.239366,2.658304,0.144696,-0.069059,-4.975166,1.445494,-4.916381,-0.179688,-0.037497,0.000000,0.017722,-0.272634,0.000000
2.200000,-0.957042,0.597722,-1.463583,0.874103,0.523913,-0.036324,0.385357,-1.738191,0.238431,2.604898,0.157908,-0.117819,-5.700485,1.202152,-4.831561,-0.179499,-0.040239,0.000000,0.020039,-0.266857,0.000000
2.210000,-0.948281,0.602875,-1.463934,0.878086,0.506539,-0.033947,0.411105,-1.736559,0.237010,2.544026,0.168500,-0.165808,-6.381805,0.999180,-4.717904,-0.179289,-0.042918,0.000000,0.022059,-0.260279,0.000000
2.220000,-0.939479,0.607853,-1.464262,0.882323,0.489182,-0.031586,0.436215,-1.734827,0.235119,2.476949,0.177610,-0.212327,-7.027512,0.828339,-4.582218,-0.179059,-0.045527,0.000000,0.023882,-0.253037,0.000000
2.230000,-0.930634,0.612658,-1.464566,0.886808,0.471843,-0.029246,0.460623,-1.733012,0.232769,2.403598,0.185175,-0.257385,-7.636323,0.690088,-4.426326,-0.178812,-0.048059,0.000000,0.025502,-0.245130,-0.000000
2.240000,-0.921742,0.617290,-1.464847,0.891533,0.454522,-0.026932,0.484268,-1.731128,0.229976,2.324350,0.191522,-0.300792,-8.206955,0.584888,-4.252049,-0.178550,-0.050507,0.000000,0.026948,-0.236601,0.000000
2.250000,-0.912803,0.621749,-1.465105,0.896490,0.437221,-0.024648,0.507092,-1.729185,0.226759,2.239591,0.196985,-0.342371,-8.738122,0.513198,-4.061210,-0.178273,-0.052865,0.000000,0.028251,-0.227497,0.000000
2.260000,-0.903812,0.626035,-1.465340,0.901672,0.419939,-0.022398,0.529039,-1.727193,0.223135,2.149373,0.201596,-0.381972,-9.219699,0.483143,-3.855501,-0.177985,-0.055128,0.000000,0.029409,-0.217831,0.000000
2.270000,-0.894768,0.630148,-1.465553,0.907068,0.402677,-0.020186,0.550064,-1.725153,0.219127,2.054938,0.206417,-0.419444,-9.660329,0.486580,-3.636890,-0.177685,-0.057290,0.000000,0.030530,-0.207734,0.000000
2.280000,-0.885670,0.634088,-1.465744,0.912670,0.385436,-0.018017,0.570123,-1.723064,0.214754,1.956303,0.211438,-0.454673,-10.059811,0.523031,-3.407217,-0.177375,-0.059348,0.000000,0.031609,-0.197216,-0.000000
2.290000,-0.876514,0.637856,-1.465913,0.918467,0.368216,-0.015892,0.589177,-1.720923,0.210041,1.853880,0.216986,-0.487558,-10.417945,0.592019,-3.168319,-0.177053,-0.061296,0.000000,0.032680,-0.186324,-0.000000
2.300000,-0.867300,0.641453,-1.466062,0.924450,0.351018,-0.013817,0.607190,-1.718722,0.205011,1.748083,0.223385,-0.518015,-10.734529,0.693064,-2.922036,-0.176721,-0.063132,0.000000,0.033773,-0.175107,-0.000000
2.310000,-0.858025,0.644877,-1.466190,0.930608,0.333842,-0.011793,0.624126,-1.716454,0.199690,1.639046,0.230715,-0.545852,-11.002237,0.831699,-2.673425,-0.176378,-0.064852,0.000000,0.034895,-0.163583,-0.000000
2.320000,-0.848687,0.648129,-1.466298,0.936929,0.316689,-0.009824,0.639962,-1.714102,0.194102,1.527857,0.239852,-0.571326,-11.228868,1.000700,-2.420711,-0.176023,-0.066455,0.000000,0.036139,-0.151868,0.000000
2.330000,-0.839286,0.651211,-1.466386,0.943403,0.299560,-0.007912,0.654676,-1.711651,0.188272,1.414604,0.250826,-0.594258,-11.415093,1.198852,-2.165339,-0.175655,-0.067937,0.000000,0.037506,-0.139974,0.000000
2.340000,-0.829819,0.654121,-1.466456,0.950019,0.282456,-0.006059,0.668249,-1.709079,0.182226,1.299687,0.263922,-0.614629,-11.561586,1.424943,-1.908751,-0.175272,-0.069297,0.000000,0.039025,-0.127946,0.000000
2.350000,-0.820285,0.656860,-1.466508,0.956764,0.265379,-0.004268,0.680666,-1.706364,0.175988,1.183502,0.279414,-0.632434,-11.669018,1.677757,-1.652394,-0.174874,-0.070535,0.000000,0.040726,-0.115827,0.000000
2.360000,-0.810683,0.659428,-1.466542,0.963628,0.248330,-0.002540,0.691915,-1.703483,0.169588,1.066291,0.297405,-0.647492,-11.734427,1.960038,-1.402520,-0.174457,-0.071649,0.000000,0.042616,-0.103646,-0.000000
2.370000,-0.801012,0.661827,-1.466559,0.970599,0.231310,-0.000877,0.701990,-1.700406,0.163047,0.948776,0.318517,-0.660278,-11.762565,2.266131,-1.155175,-0.174021,-0.072640,0.000000,0.044767,-0.091475,-0.000000
2.380000,-0.791271,0.664055,-1.466560,0.977664,0.214322,0.000720,0.710890,-1.697103,0.156390,0.831160,0.342802,-0.670606,-11.754549,2.594336,-0.911214,-0.173561,-0.073507,0.000000,0.047183,-0.079336,0.000000
2.390000,-0.781458,0.666113,-1.466545,0.984813,0.197369,0.002251,0.718614,-1.693539,0.149643,0.713801,0.370472,-0.678516,-11.711497,2.942955,-0.671493,-0.173076,-0.074251,0.000000,0.049887,-0.067267,-0.000000
2.400000,-0.771574,0.668002,-1.466515,0.992032,0.180453,0.003713,0.725168,-1.689681,0.142828,0.597044,0.401723,-0.684053,-11.634524,3.310288,-0.436867,-0.172562,-0.074873,0.000000,0.052899,-0.055302,0.000000
2.410000,-0.761617,0.669722,-1.466471,0.999312,0.163576,0.005107,0.730554,-1.685493,0.135971,0.480879,0.436605,-0.687156,-11.516124,3.697908,-0.211153,-0.172017,-0.075374,0.000000,0.056225,-0.043442,0.000000
2.420000,-0.751588,0.671274,-1.466413,1.006640,0.146744,0.006432,0.734790,-1.680936,0.129092,0.366438,0.475585,-0.688166,-11.367094,4.100445,0.008118,-0.171437,-0.075756,0.000000,0.059920,-0.031797,-0.000000
2.430000,-0.741485,0.672657,-1.466342,1.014004,0.129959,0.007689,0.737889,-1.675968,0.122214,0.253632,0.518657,-0.687017,-11.189610,4.515800,0.220454,-0.170817,-0.076020,0.000000,0.063983,-0.020359,-0.000000
2.440000,-0.731308,0.673873,-1.466259,1.021394,0.113226,0.008877,0.739869,-1.670549,0.115359,0.142733,0.565937,-0.683781,-10.985843,4.941873,0.425363,-0.170156,-0.076170,0.000000,0.068427,-0.009152,0.000000
2.450000,-0.721057,0.674922,-1.466165,1.028798,0.096550,0.009996,0.740751,-1.664635,0.108546,0.033995,0.617523,-0.678536,-10.757968,5.376566,0.622351,-0.169448,-0.076207,0.000000,0.073266,0.001799,0.000000
2.460000,-0.710732,0.675804,-1.466060,1.036205,0.079935,0.011048,0.740560,-1.658183,0.101797,-0.072009,0.673517,-0.671170,-10.516854,5.817099,0.806063,-0.168689,-0.076134,0.000000,0.078508,0.012438,-0.000000
2.470000,-0.700333,0.676521,-1.465944,1.043605,0.063388,0.012032,0.739319,-1.651150,0.095128,-0.175884,0.733910,-0.662225,-10.254914,6.262136,0.981466,-0.167876,-0.075955,0.000000,0.084164,0.022833,-0.000000
2.480000,-0.689860,0.677072,-1.465819,1.050988,0.046914,0.012951,0.737052,-1.643490,0.088558,-0.277041,0.798768,-0.651568,-9.973256,6.709662,1.148661,-0.167004,-0.075672,0.000000,0.090238,0.032923,-0.000000
2.490000,-0.679313,0.677460,-1.465685,1.058343,0.030520,0.013804,0.733788,-1.635160,0.082102,-0.375287,0.868105,-0.639279,-9.672990,7.157661,1.307753,-0.166070,-0.075289,0.000000,0.096736,0.042694,0.000000
2.500000,-0.668693,0.677683,-1.465543,1.065661,0.014213,0.014593,0.729556,-1.626113,0.075777,-0.470443,0.941916,-0.625439,-9.355224,7.604118,1.458843,-0.165068,-0.074808,0.000000,0.103660,0.052129,0.000000
2.510000,-0.658000,0.677744,-1.465394,1.072931,-0.001999,0.015320,0.724388,-1.616307,0.069598,-0.562512,1.020174,-0.610133,-9.016655,8.047064,1.602137,-0.163995,-0.074233,0.000000,0.111010,0.061233,0.000000
2.520000,-0.647234,0.677644,-1.465237,1.080145,-0.018110,0.015986,0.718318,-1.605695,0.063579,-0.650923,1.102837,-0.593427,-8.663345,8.484430,1.737624,-0.162847,-0.073568,0.000000,0.118786,0.069950,0.000000
2.530000,-0.636397,0.677382,-1.465074,1.087295,-0.034110,0.016592,0.711381,-1.594235,0.057734,-0.735735,1.189837,-0.575406,-8.296941,8.914194,1.865393,-0.161618,-0.072816,0.000000,0.126984,0.078291,0.000000
2.540000,-0.625489,0.676962,-1.464906,1.094370,-0.049992,0.017141,0.703615,-1.581884,0.052075,-0.816824,1.281088,-0.556145,-7.919094,9.334334,1.985535,-0.160306,-0.071982,0.000000,0.135599,0.086244,0.000000
2.550000,-0.614510,0.676383,-1.464732,1.101364,-0.065745,0.017634,0.695058,-1.568600,0.046615,-0.894084,1.376485,-0.535720,-7.531451,9.742830,2.098141,-0.158905,-0.071070,0.000000,0.144624,0.093803,-0.000000
2.560000,-0.603462,0.675647,-1.464553,1.108269,-0.081360,0.018074,0.685745,-1.554341,0.041364,-0.967565,1.475950,-0.514257,-7.132163,10.136392,2.204579,-0.157412,-0.070084,0.000000,0.154055,0.100976,0.000000
2.570000,-0.592345,0.674756,-1.464370,1.115077,-0.096828,0.018462,0.675720,-1.539068,0.036333,-1.036864,1.579217,-0.491711,-6.726806,10.514422,2.303505,-0.155822,-0.069027,0.000000,0.163869,0.107723,-0.000000
2.580000,-0.581161,0.673711,-1.464184,1.121781,-0.112138,0.018801,0.665022,-1.522744,0.031533,-1.102087,1.686180,-0.468213,-6.317458,10.875051,2.394852,-0.154133,-0.067904,0.000000,0.174059,0.114060,0.000000
2.590000,-0.569910,0.672514,-1.463994,1.128375,-0.127280,0.019094,0.653692,-1.505333,0.026972,-1.163206,1.796654,-0.443839,-5.906198,11.216415,2.478555,-0.152340,-0.066720,0.000000,0.184610,0.119984,0.000000
2.600000,-0.558593,0.671166,-1.463802,1.134853,-0.142241,0.019342,0.641771,-1.486800,0.022659,-1.220212,1.910438,-0.418667,-5.495101,11.536646,2.554547,-0.150440,-0.065478,0.000000,0.195507,0.125498,0.000000
2.610000,-0.547213,0.669670,-1.463608,1.141209,-0.157012,0.019548,0.629306,-1.467111,0.018602,-1.272646,2.027503,-0.392707,-5.098126,11.829020,2.621071,-0.148429,-0.064183,0.000000,0.206749,0.130557,0.000000
2.620000,-0.535770,0.668027,-1.463411,1.147437,-0.171580,0.019715,0.616331,-1.446240,0.014807,-1.321654,2.147154,-0.366196,-4.704015,12.097124,2.679959,-0.146304,-0.062839,0.000000,0.218274,0.135279,-0.000000
2.630000,-0.524265,0.666239,-1.463214,1.153534,-0.185933,0.019845,0.602886,-1.424160,0.011280,-1.366738,2.269360,-0.339133,-4.313393,12.339685,2.731351,-0.144062,-0.061450,0.000000,0.230080,0.139615,0.000000
2.640000,-0.512699,0.664309,-1.463015,1.159494,-0.200059,0.019941,0.589010,-1.400846,0.008026,-1.407935,2.393859,-0.311593,-3.926882,12.555433,2.775389,-0.141701,-0.060019,0.000000,0.242146,0.143571,0.000000
2.650000,-0.501075,0.662239,-1.462815,1.165313,-0.213945,0.020006,0.574740,-1.376276,0.005049,-1.445291,2.520375,-0.283649,-3.545105,12.743095,2.812214,-0.139218,-0.058550,0.000000,0.254448,0.147152,0.000000
2.660000,-0.489394,0.660031,-1.462615,1.170987,-0.227580,0.020043,0.560115,-1.350430,0.002353,-1.478975,2.648786,-0.255421,-3.165653,12.897270,2.843186,-0.136611,-0.057048,0.000000,0.266977,0.150376,-0.000000
2.670000,-0.477656,0.657688,-1.462414,1.176514,-0.240950,0.020054,0.545173,-1.323296,-0.000058,-1.508761,2.778404,-0.226864,-2.792552,13.021321,2.867077,-0.133878,-0.055516,0.000000,0.279668,0.153222,0.000000
2.680000,-0.465864,0.655213,-1.462214,1.181890,-0.254042,0.020043,0.529952,-1.294859,-0.002183,-1.534851,2.909110,-0.198103,-2.426798,13.114484,2.883879,-0.131017,-0.053957,0.000000,0.292511,0.155709,0.000000
2.690000,-0.454019,0.652608,-1.462013,1.187112,-0.266843,0.020012,0.514488,-1.265111,-0.004020,-1.557324,3.040589,-0.169210,-2.069385,13.175993,2.893583,-0.128028,-0.052376,0.000000,0.305479,0.157848,0.000000
2.700000,-0.442122,0.649877,-1.461813,1.192179,-0.279339,0.019963,0.498817,-1.234045,-0.005567,-1.576270,3.172521,-0.140255,-1.721308,13.205081,2.896181,-0.124908,-0.050775,0.000000,0.318542,0.159646,0.000000
2.710000,-0.430176,0.647022,-1.461614,1.197088,-0.291519,0.019901,0.482976,-1.201657,-0.006825,-1.591622,3.304849,-0.111267,-1.387677,13.194184,2.890575,-0.121656,-0.049159,0.000000,0.331696,0.161097,0.000000
2.720000,-0.418181,0.644048,-1.461415,1.201838,-0.303368,0.019828,0.466996,-1.167949,-0.007793,-1.603875,3.436598,-0.082418,-1.064867,13.150168,2.877979,-0.118274,-0.047530,0.000000,0.344847,0.162252,0.000000
2.730000,-0.406140,0.640956,-1.461218,1.206427,-0.314874,0.019746,0.450909,-1.132927,-0.008473,-1.612957,3.567742,-0.053730,-0.753368,13.073099,2.858520,-0.114759,-0.045892,0.000000,0.357993,0.163103,0.000000
2.740000,-0.394053,0.637751,-1.461020,1.210856,-0.326022,0.019659,0.434747,-1.096598,-0.008868,-1.618982,3.697950,-0.025270,-0.453670,12.963043,2.832322,-0.111114,-0.044248,0.000000,0.371102,0.163660,-0.000000
2.750000,-0.381923,0.634437,-1.460824,1.215122,-0.336801,0.019570,0.418539,-1.058972,-0.008980,-1.622071,3.826893,0.002895,-0.166262,12.820068,2.799511,-0.107338,-0.042600,0.000000,0.384142,0.163936,0.000000
2.760000,-0.369751,0.631016,-1.460629,1.219226,-0.347198,0.019481,0.402316,-1.020062,-0.008811,-1.622248,3.954522,0.030758,0.105799,12.637156,2.758718,-0.103431,-0.040951,0.000000,0.397107,0.163933,0.000000
2.770000,-0.357539,0.627494,-1.460435,1.223169,-0.357198,0.019395,0.386103,-0.979888,-0.008366,-1.619884,4.079846,0.058115,0.364901,12.422325,2.711746,-0.099396,-0.039304,0.000000,0.409899,0.163686,0.000000
2.780000,-0.345288,0.623874,-1.460241,1.226949,-0.366791,0.019314,0.369927,-0.938473,-0.007650,-1.614994,4.202866,0.084973,0.610870,12.176509,2.658901,-0.095234,-0.037662,0.000000,0.422517,0.163197,0.000000
2.790000,-0.333001,0.620160,-1.460048,1.230567,-0.375964,0.019242,0.353811,-0.895840,-0.006669,-1.607711,4.323276,0.111274,0.843528,11.900643,2.600493,-0.090946,-0.036026,0.000000,0.434928,0.162479,-0.000000
2.800000,-0.320677,0.616356,-1.459856,1.234025,-0.384704,0.019182,0.337780,-0.852017,-0.005427,-1.598169,4.440781,0.136965,1.062700,11.595659,2.536829,-0.086536,-0.034400,0.000000,0.447102,0.161543,0.000000
2.810000,-0.308321,0.612467,-1.459665,1.237323,-0.393000,0.019135,0.321856,-0.807033,-0.003931,-1.586424,4.555305,0.162045,1.266213,11.257186,2.466932,-0.082005,-0.032784,0.000000,0.459026,0.160395,0.000000
2.820000,-0.295932,0.608498,-1.459474,1.240463,-0.400841,0.019104,0.306058,-0.760923,-0.002188,-1.572801,4.666073,0.186346,1.456131,10.892114,2.392553,-0.077356,-0.031182,0.000000,0.470622,0.159066,-0.000000
2.830000,-0.283512,0.604452,-1.459283,1.243445,-0.408215,0.019092,0.290406,-0.713724,-0.000207,-1.557346,4.773064,0.209883,1.632523,10.502026,2.314157,-0.072594,-0.029594,0.000000,0.481883,0.157560,-0.000000
2.840000,-0.271063,0.600335,-1.459092,1.246271,-0.415112,0.019101,0.274917,-0.665475,0.002007,-1.540195,4.876036,0.232618,1.795455,10.088507,2.232210,-0.067720,-0.028023,0.000000,0.492782,0.155889,-0.000000
2.850000,-0.258587,0.596151,-1.458900,1.248944,-0.421521,0.019133,0.259607,-0.616217,0.004443,-1.521482,4.974762,0.254517,1.944996,9.653140,2.147177,-0.062739,-0.026469,0.000000,0.503290,0.154066,0.000000
2.860000,-0.246085,0.591906,-1.458709,1.251464,-0.427433,0.019190,0.244493,-0.565994,0.007094,-1.501287,5.069111,0.275566,2.079902,9.195491,2.059185,-0.057655,-0.024936,0.000000,0.513390,0.152098,-0.000000
2.870000,-0.233558,0.587604,-1.458517,1.253834,-0.432838,0.019275,0.229586,-0.514851,0.009951,-1.479869,5.158700,0.295709,2.201713,8.719409,1.969079,-0.052473,-0.023423,0.000000,0.523039,0.150010,0.000000
2.880000,-0.221009,0.583251,-1.458323,1.256057,-0.437727,0.019390,0.214899,-0.462836,0.013005,-1.457296,5.243444,0.314942,2.310659,8.226725,1.877366,-0.047196,-0.021932,0.000000,0.532222,0.147808,0.000000
2.890000,-0.208437,0.578851,-1.458129,1.258133,-0.442092,0.019536,0.200443,-0.409998,0.016247,-1.433698,5.323185,0.333252,2.406968,7.719268,1.784553,-0.041830,-0.020464,0.000000,0.540918,0.145504,0.000000
2.900000,-0.195846,0.574411,-1.457932,1.260066,-0.445925,0.019715,0.186228,-0.356389,0.019667,-1.409198,5.397786,0.350631,2.490870,7.198870,1.691147,-0.036380,-0.019019,0.000000,0.549109,0.143110,-0.000000
2.910000,-0.183237,0.569935,-1.457734,1.261858,-0.449218,0.019930,0.172262,-0.302061,0.023256,-1.383889,5.467080,0.367046,2.561790,6.668505,1.598390,-0.030850,-0.017600,0.000000,0.556770,0.140634,0.000000
2.920000,-0.170610,0.565428,-1.457534,1.263512,-0.451964,0.020181,0.158553,-0.247065,0.027005,-1.357966,5.531074,0.382567,2.620858,6.128719,1.505963,-0.025246,-0.016206,0.000000,0.563899,0.138095,-0.000000
2.930000,-0.157967,0.560897,-1.457331,1.265030,-0.454157,0.020470,0.145105,-0.191457,0.030905,-1.331510,5.589629,0.397168,2.668402,5.581205,1.414283,-0.019574,-0.014837,0.000000,0.570474,0.135500,0.000000
2.940000,-0.145310,0.556347,-1.457124,1.266415,-0.455791,0.020800,0.131924,-0.135291,0.034946,-1.304635,5.642678,0.410857,2.704750,5.027653,1.323767,-0.013838,-0.013495,0.000000,0.576483,0.132862,0.000000
2.950000,-0.132639,0.551783,-1.456914,1.267670,-0.456861,0.021170,0.119013,-0.078622,0.039119,-1.277451,5.690168,0.423648,2.730228,4.469753,1.234832,-0.008046,-0.012180,0.000000,0.581917,0.130189,-0.000000
2.960000,-0.119957,0.547212,-1.456701,1.268797,-0.457362,0.021582,0.106376,-0.021508,0.043415,-1.250039,5.731935,0.435500,2.744499,3.912447,1.149407,-0.002202,-0.010891,0.000000,0.586754,0.127490,-0.000000
2.970000,-0.107263,0.542638,-1.456483,1.269798,-0.457290,0.022039,0.094013,0.035998,0.047826,-1.222566,5.768267,0.446576,2.748636,3.353777,1.066210,0.003687,-0.009630,0.000000,0.591017,0.124782,-0.000000
2.980000,-0.094561,0.538068,-1.456260,1.270678,-0.456641,0.022539,0.081924,0.093839,0.052344,-1.195099,5.799010,0.456833,2.743048,2.795035,0.985475,0.009616,-0.008396,0.000000,0.594688,0.122071,0.000000
2.990000,-0.081850,0.533507,-1.456032,1.271438,-0.455412,0.023086,0.070110,0.151959,0.056960,-1.167736,5.824172,0.466295,2.728144,2.237516,0.907433,0.015579,-0.007188,0.000000,0.597762,0.119366,-0.000000
3.000000,-0.069133,0.528962,-1.455798,1.272081,-0.453601,0.023679,0.058569,0.210304,0.061667,-1.140566,5.843769,0.474991,2.704332,1.682511,0.832315,0.021570,-0.006008,0.000000,0.600240,0.116677,-0.000000
3.010000,-0.056409,0.524437,-1.455558,1.272610,-0.451205,0.024319,0.047298,0.268815,0.066457,-1.113656,5.857665,0.482878,2.671478,1.135598,0.762222,0.027582,-0.004854,0.000000,0.602101,0.114010,-0.000000
3.020000,-0.043681,0.519939,-1.455311,1.273028,-0.448224,0.025008,0.036295,0.327439,0.071322,-1.087139,5.866305,0.490163,2.630600,0.593260,0.695289,0.033610,-0.003727,0.000000,0.603392,0.111379,-0.000000
3.030000,-0.030949,0.515475,-1.455058,1.273337,-0.444656,0.025746,0.025554,0.386123,0.076258,-1.061069,5.869548,0.496794,2.582174,0.056267,0.631517,0.039648,-0.002625,0.000000,0.604094,0.108789,0.000000
3.040000,-0.018214,0.511048,-1.454796,1.273540,-0.440502,0.026534,0.015072,0.444812,0.081256,-1.035519,5.867451,0.502804,2.526673,-0.474615,0.570910,0.045690,-0.001549,0.000000,0.604211,0.106248,-0.000000
3.050000,-0.005478,0.506667,-1.454527,1.273639,-0.435760,0.027371,0.004842,0.503454,0.086312,-1.010557,5.860079,0.508223,2.464575,-0.998617,0.513470,0.051730,-0.000498,0.000000,0.603750,0.103762,-0.000000
3.060000,0.007258,0.502335,-1.454249,1.273637,-0.430433,0.028260,-0.005142,0.561994,0.091418,-0.986236,5.847329,0.513010,2.396040,-1.510542,0.461052,0.057762,0.000529,0.000000,0.602699,0.101338,-0.000000
3.070000,0.019994,0.498060,-1.453961,1.273537,-0.424521,0.029200,-0.014885,0.620384,0.096570,-0.962641,5.829696,0.517371,2.321895,-2.014593,0.411581,0.063782,0.001532,0.000000,0.601108,0.098984,0.000000
3.080000,0.032728,0.493847,-1.453664,1.273340,-0.418026,0.030192,-0.024397,0.678572,0.101764,-0.939815,5.807064,0.521251,2.242654,-2.510544,0.364833,0.069783,0.002513,0.000000,0.598966,0.096704,-0.000000
3.090000,0.045460,0.489701,-1.453357,1.273050,-0.410950,0.031235,-0.033684,0.736509,0.106994,-0.917804,5.779513,0.524676,2.158830,-2.998169,0.320584,0.075759,0.003472,0.000000,0.596282,0.094504,0.000000
3.100000,0.058189,0.485630,-1.453040,1.272667,-0.403297,0.032332,-0.042756,0.794146,0.112256,-0.896652,5.747129,0.527670,2.070937,-3.477241,0.278610,0.081707,0.004409,0.000000,0.593065,0.092389,0.000000
3.110000,0.070914,0.481637,-1.452711,1.272195,-0.395068,0.033481,-0.051620,0.851434,0.117545,-0.876389,5.709849,0.530192,1.979295,-3.943791,0.240277,0.087619,0.005326,0.000000,0.589309,0.090361,0.000000
3.120000,0.083633,0.477730,-1.452370,1.271636,-0.386269,0.034683,-0.060287,0.908327,0.122858,-0.857067,5.668115,0.532410,1.884635,-4.401796,0.203578,0.093491,0.006223,0.000000,0.585064,0.088425,-0.000000
3.130000,0.096346,0.473914,-1.452017,1.270990,-0.376903,0.035938,-0.068765,0.964781,0.128192,-0.838705,5.621841,0.534268,1.787494,-4.851487,0.168093,0.099318,0.007102,0.000000,0.580321,0.086586,-0.000000
3.140000,0.109052,0.470194,-1.451651,1.270261,-0.366975,0.037246,-0.077064,1.020749,0.133543,-0.821324,5.571112,0.535775,1.688408,-5.293096,0.133405,0.105096,0.007964,0.000000,0.575090,0.084843,0.000000
3.150000,0.121751,0.466576,-1.451272,1.269449,-0.356490,0.038609,-0.085195,1.076189,0.138906,-0.804941,5.516006,0.536937,1.587915,-5.726857,0.099096,0.110819,0.008809,0.000000,0.569384,0.083201,0.000000
3.160000,0.134441,0.463066,-1.450879,1.268558,-0.345453,0.040025,-0.093166,1.131054,0.144280,-0.789573,5.456500,0.537709,1.486663,-6.150477,0.065952,0.116482,0.009639,0.000000,0.563200,0.081659,0.000000
3.170000,0.147122,0.459669,-1.450471,1.267587,-0.333871,0.041494,-0.100990,1.185305,0.149660,-0.775214,5.392907,0.538200,1.385064,-6.567022,0.032202,0.122081,0.010454,0.000000,0.556575,0.080219,-0.000000
3.180000,0.159792,0.456390,-1.450048,1.266538,-0.321750,0.043018,-0.108674,1.238898,0.155043,-0.761871,5.325181,0.538349,1.283644,-6.977033,-0.002721,0.127612,0.011255,0.000000,0.549507,0.078881,-0.000000
3.190000,0.172452,0.453236,-1.449610,1.265414,-0.309095,0.044595,-0.116230,1.291795,0.160425,-0.749539,5.253386,0.538140,1.182924,-7.381053,-0.039382,0.133070,0.012045,0.000000,0.542004,0.077644,-0.000000
3.200000,0.185100,0.450210,-1.449156,1.264214,-0.295916,0.046226,-0.123668,1.343953,0.165804,-0.738208,5.177578,0.537554,1.083430,-7.779623,-0.078347,0.138451,0.012822,0.000000,0.534074,0.076507,-0.000000
3.210000,0.197736,0.447319,-1.448686,1.262941,-0.282219,0.047911,-0.130998,1.395333,0.171175,-0.727882,5.097776,0.536534,0.986134,-8.172414,-0.119435,0.143750,0.013590,0.000000,0.525723,0.075472,0.000000
3.220000,0.210359,0.444567,-1.448198,1.261594,-0.268012,0.049650,-0.138229,1.445895,0.176533,-0.718498,5.014106,0.535120,0.891055,-8.560944,-0.164051,0.148964,0.014348,0.000000,0.516965,0.074530,0.000000
3.230000,0.222968,0.441960,-1.447693,1.260176,-0.253304,0.051442,-0.145371,1.495602,0.181876,-0.710052,4.926569,0.533239,0.798663,-8.945862,-0.212854,0.154088,0.015097,0.000000,0.507804,0.073683,-0.000000
3.240000,0.235562,0.439503,-1.447169,1.258687,-0.238103,0.053287,-0.152433,1.544414,0.187196,-0.702514,4.835198,0.530846,0.709425,-9.327815,-0.266501,0.159118,0.015840,0.000000,0.498244,0.072927,0.000000
3.250000,0.248141,0.437200,-1.446627,1.257128,-0.222419,0.055186,-0.159424,1.592293,0.192491,-0.695851,4.740020,0.527891,0.623811,-9.707451,-0.325649,0.164051,0.016575,0.000000,0.488290,0.072259,0.000000
3.260000,0.260705,0.435056,-1.446065,1.255499,-0.206260,0.057137,-0.166353,1.639202,0.197752,-0.690055,4.641098,0.524306,0.543063,-10.086505,-0.390790,0.168883,0.017305,0.000000,0.477950,0.071677,-0.000000
3.270000,0.273251,0.433076,-1.445484,1.253801,-0.189638,0.059141,-0.173228,1.685102,0.202974,-0.685010,4.538343,0.520044,0.466780,-10.464406,-0.462768,0.173609,0.018029,0.000000,0.467217,0.071169,0.000000
3.280000,0.285780,0.431265,-1.444882,1.252035,-0.172562,0.061196,-0.180056,1.729956,0.208150,-0.680704,4.431812,0.515026,0.395338,-10.841668,-0.542263,0.178226,0.018750,0.000000,0.456096,0.070735,0.000000
3.290000,0.298292,0.429627,-1.444260,1.250200,-0.155043,0.063303,-0.186844,1.773726,0.213272,-0.677086,4.321510,0.509172,0.329108,-11.218806,-0.629953,0.182730,0.019467,0.000000,0.444591,0.070368,0.000000
3.300000,0.310784,0.428166,-1.443616,1.248298,-0.137091,0.065461,-0.193600,1.816374,0.218331,-0.674103,4.207434,0.502397,0.268466,-11.596334,-0.726515,0.187117,0.020181,0.000000,0.432699,0.070063,-0.000000
3.310000,0.323257,0.426886,-1.442950,1.246328,-0.118719,0.067670,-0.200329,1.857864,0.223317,-0.671745,4.089702,0.494637,0.215007,-11.977848,-0.833310,0.191383,0.020894,0.000000,0.420435,0.069819,-0.000000
3.320000,0.335711,0.425793,-1.442262,1.244291,-0.099938,0.069928,-0.207036,1.898155,0.228220,-0.669837,3.968011,0.485728,0.167733,-12.360405,-0.950252,0.195524,0.021604,0.000000,0.407765,0.069617,-0.000000
3.330000,0.348143,0.424889,-1.441552,1.242187,-0.080760,0.072234,-0.213727,1.937211,0.233028,-0.668369,3.842490,0.475596,0.126869,-12.744144,-1.077934,0.199537,0.022313,0.000000,0.394703,0.069456,0.000000
3.340000,0.360554,0.424179,-1.440817,1.240017,-0.061198,0.074588,-0.220405,1.974992,0.237727,-0.667277,3.713124,0.464131,0.092639,-13.129202,-1.216952,0.203417,0.023021,0.000000,0.381246,0.069329,0.000000
3.350000,0.372943,0.423666,-1.440060,1.237779,-0.041265,0.076988,-0.227074,2.011461,0.242305,-0.666493,3.579901,0.451217,0.065266,-13.515717,-1.367901,0.207160,0.023729,0.000000,0.367390,0.069228,-0.000000
3.360000,0.385309,0.423355,-1.439278,1.235475,-0.020973,0.079433,-0.233736,2.046579,0.246747,-0.666012,3.442998,0.436810,0.046589,-13.908713,-1.533364,0.210763,0.024436,0.000000,0.353154,0.069152,-0.000000
3.370000,0.397652,0.423248,-1.438471,1.233105,-0.000338,0.081922,-0.240394,2.080307,0.251036,-0.665610,3.301941,0.420596,0.035021,-14.302844,-1.711703,0.214222,0.025143,0.000000,0.338484,0.069078,0.000000
3.380000,0.409971,0.423349,-1.437639,1.230667,0.020628,0.084453,-0.247049,2.112605,0.255153,-0.665288,3.156939,0.402532,0.030589,-14.697649,-1.903271,0.217532,0.025850,0.000000,0.323400,0.069005,-0.000000
3.390000,0.422266,0.423661,-1.436782,1.228164,0.041910,0.087025,-0.253700,2.143433,0.259080,-0.664974,3.007987,0.382485,0.033319,-15.092668,-2.108419,0.220689,0.026557,0.000000,0.307898,0.068925,0.000000
3.400000,0.434534,0.424188,-1.435898,1.225593,0.063492,0.089634,-0.260348,2.172752,0.262796,-0.664597,2.855086,0.360317,0.043239,-15.487440,-2.327498,0.223688,0.027263,0.000000,0.291975,0.068830,-0.000000
3.410000,0.446777,0.424932,-1.434989,1.222957,0.085359,0.092280,-0.266993,2.200524,0.266280,-0.664161,2.698488,0.336042,0.062283,-15.887757,-2.564776,0.226527,0.027968,0.000000,0.275657,0.068720,0.000000
3.420000,0.458993,0.425896,-1.434053,1.220254,0.107497,0.094959,-0.273631,2.226708,0.269508,-0.663414,2.537617,0.309149,0.088337,-16.286141,-2.816209,0.229200,0.028673,0.000000,0.258873,0.068567,0.000000
3.430000,0.471182,0.427083,-1.433090,1.217484,0.129888,0.097669,-0.280260,2.251263,0.272455,-0.662371,2.372776,0.279672,0.121193,-16.681366,-3.081668,0.231703,0.029376,0.000000,0.241654,0.068373,-0.000000
3.440000,0.483343,0.428495,-1.432099,1.214648,0.152517,0.100407,-0.286877,2.274151,0.275093,-0.660968,2.204004,0.247470,0.160644,-17.072205,-3.361025,0.234032,0.030078,0.000000,0.224001,0.068129,0.000000
3.450000,0.495475,0.430134,-1.431081,1.211747,0.175365,0.103170,-0.293478,2.295331,0.277395,-0.659137,2.031351,0.212405,0.206483,-17.457433,-3.654152,0.236182,0.030777,0.000000,0.205913,0.067829,-0.000000
3.460000,0.507577,0.432003,-1.430036,1.208779,0.198417,0.105954,-0.300059,2.314768,0.279334,-0.656901,1.855153,0.174598,0.260622,-17.842759,-3.967422,0.238149,0.031473,0.000000,0.187426,0.067473,0.000000
3.470000,0.519650,0.434103,-1.428962,1.205746,0.221655,0.108755,-0.306614,2.332421,0.280876,-0.654000,1.674835,0.133305,0.320477,-18.219173,-4.293410,0.239929,0.032165,0.000000,0.168465,0.067034,-0.000000
3.480000,0.531692,0.436436,-1.427861,1.202647,0.245060,0.111570,-0.313137,2.348252,0.281989,-0.650474,1.490806,0.088691,0.385579,-18.584598,-4.631191,0.241517,0.032853,0.000000,0.149074,0.066513,0.000000
3.490000,0.543703,0.439005,-1.426731,1.199483,0.268614,0.114393,-0.319621,2.362225,0.282638,-0.646273,1.303186,0.040644,0.455464,-18.936958,-4.979841,0.242909,0.033535,0.000000,0.129262,0.065907,0.000000
3.500000,0.555682,0.441809,-1.425573,1.196255,0.292298,0.117221,-0.326060,2.374304,0.282790,-0.641351,1.112117,-0.010939,0.529663,-19.274179,-5.338436,0.244100,0.034211,0.000000,0.109039,0.065208,-0.000000
3.510000,0.567628,0.444851,-1.424386,1.192962,0.316093,0.120047,-0.332446,2.384459,0.282411,-0.635752,0.918028,-0.065777,0.609865,-19.600958,-5.715581,0.245089,0.034879,0.000000,0.088456,0.064421,0.000000
3.520000,0.579541,0.448131,-1.423172,1.189606,0.339980,0.122867,-0.338772,2.392654,0.281461,-0.629239,0.720468,-0.124848,0.693186,-19.907618,-6.099657,0.245868,0.035538,0.000000,0.067444,0.063519,-0.000000
3.530000,0.591420,0.451651,-1.421929,1.186187,0.363940,0.125674,-0.345028,2.398859,0.279902,-0.621880,0.519953,-0.187786,0.778896,-20.191251,-6.488570,0.246436,0.036188,0.000000,0.046065,0.062509,0.000000
3.540000,0.603264,0.455410,-1.420658,1.182706,0.387951,0.128463,-0.351207,2.403044,0.277693,-0.613656,0.316729,-0.254629,0.866264,-20.448955,-6.880231,0.246788,0.036827,0.000000,0.024342,0.061388,-0.000000
3.550000,0.615074,0.459410,-1.419360,1.179163,0.411994,0.131226,-0.357299,2.405185,0.274796,-0.604552,0.111070,-0.325393,0.954562,-20.677823,-7.272548,0.246922,0.037454,0.000000,0.002306,0.060155,-0.000000
3.560000,0.626847,0.463650,-1.418034,1.175560,0.436048,0.133956,-0.363295,2.405260,0.271177,-0.594602,-0.096642,-0.399581,1.044022,-20.876961,-7.675910,0.246834,0.038068,0.000000,-0.019992,0.058813,-0.000000
3.570000,0.638585,0.468131,-1.416681,1.171897,0.460092,0.136647,-0.369188,2.403246,0.266791,-0.583717,-0.306263,-0.478337,1.132833,-21.041208,-8.074217,0.246521,0.038667,0.000000,-0.042562,0.057350,-0.000000
3.580000,0.650285,0.472852,-1.415301,1.168177,0.484106,0.139289,-0.374967,2.399129,0.261597,-0.571950,-0.517339,-0.561036,1.220146,-21.167412,-8.463851,0.245982,0.039250,0.000000,-0.065339,0.055773,0.000000
3.590000,0.661948,0.477813,-1.413895,1.164398,0.508067,0.141876,-0.380624,2.392896,0.255557,-0.559322,-0.729474,-0.647573,1.305112,-21.252421,-8.841192,0.245214,0.039816,0.000000,-0.088277,0.054084,-0.000000
3.600000,0.673573,0.483013,-1.412464,1.160565,0.531956,0.144398,-0.386150,2.384538,0.248633,-0.545859,-0.942240,-0.737807,1.386884,-21.293084,-9.202622,0.244216,0.040365,0.000000,-0.111325,0.052287,0.000000
3.610000,0.685159,0.488452,-1.411008,1.156676,0.555751,0.146845,-0.391540,2.374056,0.240794,-0.531771,-1.154655,-0.831159,1.469006,-21.299455,-9.554672,0.242988,0.040894,0.000000,-0.134364,0.050405,0.000000
3.620000,0.696706,0.494128,-1.409527,1.152734,0.579430,0.149210,-0.396783,2.361445,0.231999,-0.516693,-1.367465,-0.928366,1.545700,-21.253561,-9.882328,0.241529,0.041403,0.000000,-0.157478,0.048398,-0.000000
3.630000,0.708214,0.500040,-1.408024,1.148741,0.602973,0.151482,-0.401872,2.346710,0.222216,-0.500880,-1.579536,-1.028708,1.615578,-21.150634,-10.180730,0.239839,0.041890,0.000000,-0.180531,0.046296,0.000000
3.640000,0.719681,0.506186,-1.406498,1.144697,0.626357,0.153651,-0.406799,2.329859,0.211415,-0.484409,-1.790272,-1.131867,1.677255,-20.985905,-10.445014,0.237919,0.042356,0.000000,-0.203445,0.044109,-0.000000
3.650000,0.731107,0.512566,-1.404951,1.140605,0.649563,0.155707,-0.411558,2.310911,0.199571,-0.467367,-1.999032,-1.237478,1.729344,-20.754607,-10.670318,0.235770,0.042798,0.000000,-0.226141,0.041847,0.000000
3.660000,0.742493,0.519177,-1.403384,1.136467,0.672569,0.157639,-0.416140,2.289866,0.186657,-0.449412,-2.207109,-1.345326,1.759197,-20.401897,-10.846748,0.233395,0.043216,0.000000,-0.248730,0.039479,0.000000
3.670000,0.753837,0.526017,-1.401799,1.132283,0.695354,0.159437,-0.420545,2.266781,0.172659,-0.431717,-2.409072,-1.454477,1.778069,-19.979213,-10.975090,0.230797,0.043609,0.000000,-0.270646,0.037127,-0.000000
3.680000,0.765138,0.533083,-1.400196,1.128056,0.717898,0.161089,-0.424773,2.241700,0.157564,-0.413888,-2.606465,-1.564654,1.785953,-19.487918,-11.051098,0.227983,0.043978,0.000000,-0.292025,0.034753,0.000000
3.690000,0.776397,0.540374,-1.398577,1.123788,0.740182,0.162584,-0.428823,2.214670,0.141364,-0.396035,-2.798606,-1.675311,1.782841,-18.929376,-11.070526,0.224959,0.044323,0.000000,-0.312777,0.032374,-0.000000
3.700000,0.787614,0.547886,-1.396945,1.119480,0.762185,0.163912,-0.432694,2.185747,0.124058,-0.378268,-2.984832,-1.785862,1.768726,-18.304951,-11.029127,0.221730,0.044643,0.000000,-0.332815,0.030002,0.000000
3.710000,0.798787,0.555617,-1.395300,1.115135,0.783891,0.165062,-0.436387,2.154979,0.105636,-0.360473,-3.165912,-1.896886,1.737944,-17.580091,-10.892114,0.218303,0.044938,0.000000,-0.352218,0.027627,0.000000
3.720000,0.809916,0.563563,-1.393644,1.110753,0.805280,0.166022,-0.439905,2.122454,0.086126,-0.343290,-3.337842,-2.004849,1.696838,-16.796471,-10.689523,0.214689,0.045209,0.000000,-0.370508,0.025328,-0.000000
3.730000,0.821002,0.571721,-1.391980,1.106337,0.826334,0.166781,-0.443254,2.088250,0.065547,-0.326568,-3.501665,-2.110456,1.646092,-15.959854,-10.420847,0.210897,0.045456,0.000000,-0.387801,0.023089,0.000000
3.740000,0.832043,0.580088,-1.390309,1.101889,0.847039,0.167329,-0.446438,2.052450,0.043927,-0.310398,-3.656881,-2.213044,1.586393,-15.076001,-10.085579,0.206937,0.045681,0.000000,-0.404028,0.020924,0.000000
3.750000,0.843040,0.588661,-1.388634,1.097409,0.867378,0.167656,-0.449464,2.015142,0.021299,-0.294868,-3.803047,-2.311944,1.518425,-14.150672,-9.683215,0.202820,0.045884,0.000000,-0.419132,0.018844,0.000000
3.760000,0.853991,0.597435,-1.386957,1.092900,0.887337,0.167752,-0.452338,1.976418,-0.002310,-0.280038,-3.939946,-2.407619,1.442431,-13.185328,-9.184550,0.198557,0.046066,0.000000,-0.433100,0.016854,-0.000000
3.770000,0.864897,0.606406,-1.385280,1.088363,0.906902,0.167607,-0.455067,1.936376,-0.026836,-0.266022,-4.066847,-2.496701,1.359594,-12.190558,-8.621290,0.194162,0.046229,0.000000,-0.445799,0.014982,-0.000000
3.780000,0.875758,0.615571,-1.383606,1.083799,0.926061,0.167213,-0.457661,1.895115,-0.052224,-0.252866,-4.183680,-2.579839,1.270654,-11.172649,-7.996440,0.189646,0.046372,0.000000,-0.457242,0.013230,0.000000
3.790000,0.886573,0.624926,-1.381937,1.079210,0.944801,0.166560,-0.460128,1.852737,-0.078411,-0.240627,-4.290244,-2.656434,1.176349,-10.137890,-7.313011,0.185021,0.046498,0.000000,-0.467406,0.011607,-0.000000
3.800000,0.897342,0.634466,-1.380275,1.074597,0.963112,0.165642,-0.462477,1.809345,-0.105329,-0.229355,-4.386403,-2.725914,1.077420,-9.092568,-6.574007,0.180302,0.046609,0.000000,-0.476281,0.010119,-0.000000
3.810000,0.908065,0.644187,-1.378625,1.069961,0.980985,0.164451,-0.464716,1.765042,-0.132909,-0.218922,-4.472230,-2.788260,0.970321,-8.039207,-5.769276,0.175500,0.046704,0.000000,-0.483885,0.008755,-0.000000
3.820000,0.918742,0.654084,-1.376987,1.065303,0.998410,0.162982,-0.466859,1.719935,-0.161066,-0.209766,-4.547363,-2.841728,0.860601,-6.988320,-4.916598,0.170628,0.046787,0.000000,-0.490172,0.007565,-0.000000
3.830000,0.929371,0.664153,-1.375366,1.060624,1.015381,0.161229,-0.468915,1.674130,-0.189715,-0.201714,-4.612027,-2.886448,0.749525,-5.946656,-4.020594,0.165701,0.046859,0.000000,-0.495185,0.006531,-0.000000
3.840000,0.939954,0.674390,-1.373764,1.055925,1.031891,0.159186,-0.470897,1.627729,-0.218765,-0.194775,-4.666349,-2.922010,0.638358,-4.920964,-3.085881,0.160729,0.046920,0.000000,-0.498951,0.005654,0.000000
3.850000,0.950490,0.684790,-1.372183,1.051206,1.047934,0.156852,-0.472815,1.580836,-0.248123,-0.188943,-4.710522,-2.948052,0.528362,-3.917991,-2.117079,0.155726,0.046974,0.000000,-0.501505,0.004935,-0.000000
3.860000,0.960978,0.695347,-1.370628,1.046469,1.063506,0.154223,-0.474682,1.533568,-0.277697,-0.184468,-4.743341,-2.964586,0.427581,-2.981519,-1.110421,0.150704,0.047021,0.000000,-0.502757,0.004397,0.000000
3.870000,0.971419,0.706058,-1.369100,1.041713,1.078604,0.151298,-0.476507,1.486000,-0.307381,-0.180685,-4.768605,-2.970555,0.329672,-2.076730,-0.079940,0.145674,0.047063,0.000000,-0.503082,0.003979,0.000000
3.880000,0.981812,0.716918,-1.367603,1.036939,1.093225,0.148076,-0.478299,1.438225,-0.337073,-0.177864,-4.784989,-2.966124,0.235067,-1.205839,0.968718,0.140646,0.047102,0.000000,-0.502381,0.003705,0.000000
3.890000,0.992158,0.727921,-1.366139,1.032147,1.107368,0.144557,-0.480068,1.390329,-0.366668,-0.175971,-4.792842,-2.951139,0.144203,-0.371061,2.029907,0.135630,0.047138,0.000000,-0.500713,0.003571,0.000000
3.900000,1.002455,0.739064,-1.364712,1.027337,1.121032,0.140743,-0.481822,1.342395,-0.396060,-0.174966,-4.792538,-2.925503,0.057513,0.425391,3.097981,0.130635,0.047174,0.000000,-0.498139,0.003572,-0.000000
3.910000,1.012704,0.750340,-1.363325,1.022510,1.134216,0.136637,-0.483571,1.294511,-0.425142,-0.174875,-4.783800,-2.889144,-0.022817,1.164377,4.166510,0.125670,0.047211,0.000000,-0.494658,0.003711,-0.000000
3.920000,1.022905,0.761746,-1.361981,1.017666,1.146922,0.132242,-0.485322,1.246743,-0.453808,-0.175484,-4.768630,-2.842152,-0.098319,1.862680,5.230726,0.120744,0.047250,0.000000,-0.490488,0.003966,0.000000
3.930000,1.033058,0.773277,-1.360681,1.012804,1.159151,0.127562,-0.487083,1.199161,-0.481950,-0.176824,-4.746682,-2.784563,-0.168772,2.520157,6.285081,0.115863,0.047291,0.000000,-0.485623,0.004337,-0.000000
3.940000,1.043161,0.784928,-1.359430,1.007924,1.170906,0.122605,-0.488860,1.151831,-0.509464,-0.178842,-4.718364,-2.716502,-0.233956,3.136667,7.324024,0.111034,0.047337,0.000000,-0.480124,0.004819,0.000000
3.950000,1.053216,0.796694,-1.358230,1.003027,1.182189,0.117375,-0.490662,1.104814,-0.536246,-0.181485,-4.684086,-2.638152,-0.293651,3.712068,8.342004,0.106262,0.047389,0.000000,-0.474057,0.005406,0.000000
3.960000,1.063222,0.808570,-1.357084,0.998111,1.193004,0.111882,-0.492493,1.058174,-0.562190,-0.184779,-4.643714,-2.549425,-0.345549,4.232423,9.325256,0.101555,0.047446,0.000000,-0.467428,0.006099,-0.000000
3.970000,1.073178,0.820552,-1.355993,0.993177,1.203354,0.106135,-0.494359,1.011956,-0.587202,-0.188470,-4.598954,-2.451384,-0.391775,4.713074,10.277451,0.096915,0.047512,0.000000,-0.460429,0.006869,-0.000000
3.980000,1.083085,0.832636,-1.354962,0.988224,1.213244,0.100142,-0.496264,0.966210,-0.611187,-0.192596,-4.549580,-2.343995,-0.432362,5.155567,11.194045,0.092348,0.047585,0.000000,-0.453055,0.007719,0.000000
3.990000,1.092943,0.844816,-1.353991,0.983251,1.222680,0.093915,-0.498212,0.920979,-0.634052,-0.197099,-4.495965,-2.227636,-0.467347,5.561451,12.070493,0.087855,0.047667,0.000000,-0.445360,0.008644,-0.000000
4.000000,1.102750,0.857088,-1.353084,0.978259,1.231666,0.087465,-0.500207,0.876304,-0.655711,-0.201924,-4.438467,-2.102734,-0.496765,5.932272,12.902253,0.083441,0.047758,0.000000,-0.437395,0.009635,0.000000
4.010000,1.112508,0.869447,-1.352243,0.973247,1.240208,0.080805,-0.502252,0.832223,-0.676074,-0.207069,-4.377229,-1.969228,-0.519312,6.264481,13.671446,0.079108,0.047860,0.000000,-0.429185,0.010694,0.000000
4.020000,1.122215,0.881890,-1.351469,0.968214,1.248312,0.073948,-0.504349,0.788770,-0.695071,-0.212352,-4.313055,-1.828883,-0.536527,6.565346,14.388494,0.074858,0.047973,0.000000,-0.420829,0.011796,-0.000000
4.030000,1.131872,0.894412,-1.350764,0.963160,1.255985,0.066908,-0.506499,0.745972,-0.712629,-0.217782,-4.246019,-1.681641,-0.548609,6.837037,15.050484,0.070692,0.048097,0.000000,-0.412340,0.012942,-0.000000
4.040000,1.141478,0.907009,-1.350131,0.958084,1.263234,0.059700,-0.508705,0.703858,-0.728682,-0.223308,-4.176404,-1.528067,-0.555759,7.081727,15.654506,0.066612,0.048233,0.000000,-0.403753,0.014126,0.000000
4.050000,1.151034,0.919675,-1.349571,0.952986,1.270065,0.052340,-0.510966,0.662452,-0.743171,-0.228881,-4.104468,-1.368754,-0.558175,7.301586,16.197647,0.062617,0.048380,0.000000,-0.395103,0.015342,0.000000
4.060000,1.160538,0.932409,-1.349085,0.947864,1.276485,0.044842,-0.513283,0.621774,-0.756034,-0.234479,-4.030539,-1.203719,-0.555478,7.501083,16.661647,0.058710,0.048540,0.000000,-0.386421,0.016590,0.000000
4.070000,1.169991,0.945204,-1.348674,0.942720,1.282503,0.037224,-0.515655,0.581847,-0.767231,-0.240003,-3.954618,-1.035052,-0.548517,7.679810,17.060823,0.054889,0.048713,0.000000,-0.377721,0.017850,-0.000000
4.080000,1.179392,0.958057,-1.348341,0.937551,1.288125,0.029503,-0.518083,0.542688,-0.776723,-0.245436,-3.877005,-0.862722,-0.537563,7.839658,17.394142,0.051155,0.048898,0.000000,-0.369029,0.019125,0.000000
4.090000,1.188742,0.970965,-1.348085,0.932358,1.293359,0.021696,-0.520564,0.504312,-0.784475,-0.250742,-3.797881,-0.687392,-0.522887,7.982516,17.660572,0.047508,0.049096,0.000000,-0.360363,0.020407,-0.000000
4.100000,1.198039,0.983923,-1.347907,0.927140,1.298214,0.013819,-0.523097,0.466735,-0.790463,-0.255883,-3.717405,-0.509737,-0.504758,8.110275,17.859080,0.043948,0.049307,0.000000,-0.351739,0.021692,-0.000000
4.110000,1.207284,0.996928,-1.347808,0.921896,1.302697,0.005892,-0.525681,0.429965,-0.794658,-0.260825,-3.635982,-0.329856,-0.483478,8.231453,17.973882,0.040473,0.049530,0.000000,-0.343189,0.022978,0.000000
4.120000,1.216477,1.009976,-1.347789,0.916626,1.306816,-0.002068,-0.528313,0.394019,-0.797057,-0.265541,-3.553113,-0.149828,-0.459284,8.340499,18.020503,0.037084,0.049767,0.000000,-0.334670,0.024254,-0.000000
4.130000,1.225617,1.023063,-1.347850,0.911329,1.310580,-0.010043,-0.530990,0.358906,-0.797654,-0.270002,-3.469209,0.030329,-0.432441,8.438493,17.999719,0.033779,0.050016,0.000000,-0.326213,0.025518,-0.000000
4.140000,1.234704,1.036186,-1.347990,0.906006,1.313997,-0.018015,-0.533712,0.324638,-0.796452,-0.274182,-3.384376,0.209944,-0.403216,8.526512,17.912303,0.030559,0.050277,0.000000,-0.317822,0.026766,0.000000
4.150000,1.243737,1.049342,-1.348210,0.900655,1.317075,-0.025966,-0.536473,0.291222,-0.793460,-0.278059,-3.298708,0.388356,-0.371877,8.605635,17.759030,0.027423,0.050551,0.000000,-0.309501,0.027994,0.000000
4.160000,1.252717,1.062527,-1.348509,0.895276,1.319824,-0.033879,-0.539272,0.258663,-0.788686,-0.281600,-3.212595,0.565394,-0.339025,8.684664,17.528393,0.024369,0.050837,0.000000,-0.301278,0.029199,-0.000000
4.170000,1.261642,1.075737,-1.348887,0.889869,1.322252,-0.041734,-0.542104,0.226972,-0.782160,-0.284819,-3.125386,0.739262,-0.304549,8.756008,17.234950,0.021397,0.051135,0.000000,-0.293086,0.030375,-0.000000
4.180000,1.270514,1.088971,-1.349344,0.884434,1.324367,-0.049516,-0.544967,0.196157,-0.773912,-0.287686,-3.037500,0.909891,-0.268678,8.819801,16.880980,0.018507,0.051445,0.000000,-0.284954,0.031519,-0.000000
4.190000,1.279331,1.102224,-1.349878,0.878970,1.326178,-0.057207,-0.547856,0.166224,-0.763975,-0.290189,-2.949014,1.076688,-0.231636,8.876174,16.468759,0.015698,0.051765,0.000000,-0.276880,0.032628,-0.000000
4.200000,1.288093,1.115493,-1.350488,0.873477,1.327694,-0.064790,-0.550769,0.137179,-0.752393,-0.292316,-2.860001,1.239080,-0.193648,8.925260,16.000566,0.012969,0.052097,0.000000,-0.268861,0.033698,-0.000000
4.210000,1.296800,1.128777,-1.351173,0.867955,1.328924,-0.072249,-0.553701,0.109023,-0.739207,-0.294034,-2.770764,1.396864,-0.155574,8.973026,15.470000,0.010320,0.052439,0.000000,-0.260915,0.034725,-0.000000
4.220000,1.305452,1.142071,-1.351932,0.862403,1.329878,-0.079569,-0.556649,0.081765,-0.724474,-0.295397,-2.680827,1.548700,-0.116929,9.013056,14.889080,0.007751,0.052792,0.000000,-0.252987,0.035708,0.000000
4.230000,1.314048,1.155373,-1.352764,0.856822,1.330563,-0.086734,-0.559608,0.055408,-0.708253,-0.296372,-2.590530,1.694489,-0.077861,9.044770,14.261146,0.005260,0.053153,0.000000,-0.245097,0.036644,-0.000000
4.240000,1.322588,1.168681,-1.353666,0.851211,1.330989,-0.093729,-0.562575,0.029955,-0.690606,-0.296954,-2.499961,1.833777,-0.038519,9.067586,13.589540,0.002849,0.053524,0.000000,-0.237243,0.037528,0.000000
4.250000,1.331072,1.181992,-1.354638,0.845570,1.331165,-0.100542,-0.565546,0.005409,-0.671600,-0.297142,-2.409210,1.966145,0.000948,9.080923,12.877602,0.000515,0.053904,0.000000,-0.229422,0.038358,0.000000
4.260000,1.339500,1.195304,-1.355676,0.839900,1.331100,-0.107157,-0.568516,-0.018230,-0.651305,-0.296914,-2.318467,2.091386,0.039869,9.086507,12.124111,-0.001740,0.054291,0.000000,-0.221640,0.039131,-0.000000
4.270000,1.347870,1.208613,-1.356780,0.834200,1.330803,-0.113564,-0.571483,-0.040960,-0.629798,-0.296321,-2.227620,2.208720,0.078683,9.081167,11.337528,-0.003918,0.054686,0.000000,-0.213876,0.039845,0.000000
4.280000,1.356184,1.221919,-1.357947,0.828470,1.330284,-0.119749,-0.574441,-0.062783,-0.607158,-0.295341,-2.136883,2.318040,0.117306,9.064038,10.521752,-0.006018,0.055088,0.000000,-0.206138,0.040498,0.000000
4.290000,1.364440,1.235218,-1.359174,0.822711,1.329551,-0.125703,-0.577388,-0.083699,-0.583465,-0.293976,-2.046381,2.419071,0.155653,9.034257,9.680681,-0.008040,0.055496,0.000000,-0.198428,0.041086,0.000000
4.300000,1.372638,1.248509,-1.360460,0.816922,1.328613,-0.131415,-0.580320,-0.103711,-0.558805,-0.292229,-1.956243,2.511582,0.193642,8.990959,8.818216,-0.009986,0.055910,0.000000,-0.190748,0.041608,0.000000
4.310000,1.380778,1.261790,-1.361802,0.811105,1.327479,-0.136876,-0.583231,-0.122825,-0.533262,-0.290093,-1.866550,2.595392,0.230903,8.931761,7.937887,-0.011855,0.056328,0.000000,-0.183095,0.042059,0.000000
4.320000,1.388860,1.275058,-1.363197,0.805258,1.326159,-0.142078,-0.586120,-0.141045,-0.506926,-0.287600,-1.777590,2.670311,0.267671,8.857504,7.044006,-0.013648,0.056751,0.000000,-0.175488,0.042440,0.000000
4.330000,1.396883,1.288313,-1.364643,0.799382,1.324661,-0.147013,-0.588982,-0.158379,-0.479886,-0.284742,-1.689452,2.736240,0.303897,8.767511,6.140517,-0.015365,0.057177,0.000000,-0.167926,0.042748,-0.000000
4.340000,1.404847,1.301551,-1.366136,0.793478,1.322995,-0.151674,-0.591814,-0.174837,-0.452232,-0.281524,-1.602295,2.793102,0.339531,8.661104,5.231366,-0.017007,0.057605,0.000000,-0.160417,0.042980,-0.000000
4.350000,1.412753,1.314772,-1.367675,0.787546,1.321168,-0.156056,-0.594611,-0.190429,-0.424054,-0.277953,-1.516287,2.840861,0.374524,8.537604,4.320497,-0.018574,0.058036,0.000000,-0.152969,0.043135,0.000000
4.360000,1.420598,1.327974,-1.369256,0.781586,1.319189,-0.160153,-0.597372,-0.205165,-0.395446,-0.274026,-1.431425,2.879381,0.408577,8.391862,3.415362,-0.020066,0.058468,0.000000,-0.145574,0.043209,-0.000000
4.370000,1.428384,1.341155,-1.370877,0.775599,1.317067,-0.163963,-0.600091,-0.219062,-0.366497,-0.269773,-1.348310,2.909031,0.441921,8.228219,2.515968,-0.021486,0.058900,0.000000,-0.138287,0.043206,-0.000000
4.380000,1.436110,1.354315,-1.372535,0.769585,1.314810,-0.167482,-0.602766,-0.232137,-0.337296,-0.265190,-1.266921,2.929731,0.474536,8.046546,1.625829,-0.022833,0.059332,0.000000,-0.131100,0.043121,0.000000
4.390000,1.443776,1.367451,-1.374226,0.763544,1.312427,-0.170709,-0.605394,-0.244407,-0.307932,-0.260285,-1.187439,2.941590,0.506406,7.846711,0.748460,-0.024108,0.059762,0.000000,-0.124027,0.042954,0.000000
4.400000,1.451381,1.380563,-1.375948,0.757477,1.309925,-0.173641,-0.607971,-0.255893,-0.278493,-0.255064,-1.110047,2.944755,0.537510,7.628585,-0.112624,-0.025313,0.060191,0.000000,-0.117082,0.042704,-0.000000
4.410000,1.458925,1.393649,-1.377698,0.751384,1.307312,-0.176278,-0.610494,-0.266613,-0.249068,-0.249534,-1.034705,2.939140,0.567751,7.386372,-0.947244,-0.026450,0.060617,0.000000,-0.110259,0.042369,-0.000000
4.420000,1.466408,1.406709,-1.379472,0.745267,1.304595,-0.178622,-0.612960,-0.276595,-0.219737,-0.243708,-0.962127,2.925587,0.597200,7.126300,-1.759366,-0.027519,0.061038,0.000000,-0.103629,0.041952,0.000000
4.430000,1.473830,1.419741,-1.381269,0.739125,1.301782,-0.180674,-0.615367,-0.285865,-0.190583,-0.237593,-0.892236,2.904037,0.625846,6.848934,-2.546291,-0.028523,0.061456,0.000000,-0.097183,0.041452,0.000000
4.440000,1.481191,1.432744,-1.383085,0.732960,1.298880,-0.182435,-0.617711,-0.294450,-0.161682,-0.231194,-0.825204,2.874754,0.653682,6.554836,-3.305321,-0.029464,0.061867,0.000000,-0.090939,0.040869,0.000000
4.450000,1.488490,1.445718,-1.384917,0.726771,1.295895,-0.183909,-0.619990,-0.302379,-0.133112,-0.224522,-0.761193,2.838032,0.680697,6.244571,-4.033756,-0.030343,0.062273,0.000000,-0.084915,0.040203,0.000000
4.460000,1.495726,1.458662,-1.386762,0.720560,1.292834,-0.185098,-0.622201,-0.309682,-0.104949,-0.217583,-0.700161,2.793844,0.706872,5.913566,-4.720161,-0.031162,0.062672,0.000000,-0.079108,0.039453,0.000000
4.470000,1.502901,1.471575,-1.388618,0.714328,1.289704,-0.186009,-0.624341,-0.316393,-0.077258,-0.210386,-0.642741,2.743355,0.732210,5.568148,-5.371645,-0.031926,0.063062,0.000000,-0.073586,0.038625,-0.000000
4.480000,1.510013,1.484456,-1.390481,0.708074,1.286508,-0.186645,-0.626408,-0.322548,-0.050103,-0.202941,-0.588842,2.686533,0.756705,5.209512,-5.986577,-0.032635,0.063444,0.000000,-0.068343,0.037719,0.000000
4.490000,1.517062,1.497305,-1.392350,0.701800,1.283254,-0.187013,-0.628399,-0.328182,-0.023547,-0.195255,-0.538591,2.623751,0.780349,4.838848,-6.563330,-0.033294,0.063817,0.000000,-0.063397,0.036736,0.000000
4.500000,1.524049,1.510121,-1.394221,0.695506,1.279946,-0.187118,-0.630312,-0.333333,0.002353,-0.187337,-0.492101,2.555399,0.803134,4.457350,-7.100274,-0.033904,0.064179,0.000000,-0.058764,0.035678,0.000000
4.510000,1.530972,1.522903,-1.396091,0.689194,1.276589,-0.186968,-0.632145,-0.338036,0.027540,-0.179196,-0.449347,2.481509,0.825062,4.062967,-7.586313,-0.034470,0.064531,0.000000,-0.054444,0.034545,-0.000000
4.520000,1.537832,1.535652,-1.397959,0.682864,1.273187,-0.186570,-0.633895,-0.342333,0.051968,-0.170839,-0.410724,2.403390,0.846116,3.660531,-8.030444,-0.034994,0.064870,0.000000,-0.050487,0.033346,-0.000000
4.530000,1.544629,1.548367,-1.399822,0.676516,1.269744,-0.185932,-0.635561,-0.346264,0.075593,-0.162276,-0.376158,2.321041,0.866288,3.251632,-8.432199,-0.035481,0.065198,0.000000,-0.046890,0.032081,-0.000000
4.540000,1.551363,1.561047,-1.401677,0.670153,1.266263,-0.185061,-0.637140,-0.349870,0.098376,-0.153516,-0.345707,2.234889,0.885569,2.837861,-8.791106,-0.035933,0.065512,0.000000,-0.043665,0.030753,-0.000000
4.550000,1.558032,1.573692,-1.403523,0.663774,1.262747,-0.183967,-0.638631,-0.353192,0.120280,-0.144568,-0.319412,2.145364,0.903950,2.420807,-9.106697,-0.036355,0.065813,0.000000,-0.040821,0.029365,0.000000
4.560000,1.564638,1.586302,-1.405356,0.657380,1.259200,-0.182658,-0.640031,-0.356272,0.141270,-0.135440,-0.297269,2.052552,0.921416,2.001364,-9.369688,-0.036751,0.066100,0.000000,-0.038364,0.027919,0.000000
4.570000,1.571180,1.598876,-1.407175,0.650973,1.255622,-0.181145,-0.641339,-0.359151,0.161323,-0.126142,-0.279354,1.957720,0.937966,1.581902,-9.589501,-0.037124,0.066371,0.000000,-0.036309,0.026425,0.000000
4.580000,1.577658,1.611414,-1.408978,0.644554,1.252017,-0.179435,-0.642553,-0.361873,0.180417,-0.116684,-0.265626,1.860904,0.953594,1.164097,-9.766748,-0.037478,0.066628,0.000000,-0.034658,0.024884,0.000000
4.590000,1.584071,1.623916,-1.410763,0.638123,1.248385,-0.177539,-0.643672,-0.364478,0.198536,-0.107074,-0.256061,1.762525,0.968292,0.749622,-9.902037,-0.037818,0.066869,0.000000,-0.033413,0.023300,-0.000000
4.600000,1.590420,1.636382,-1.412528,0.631681,1.244728,-0.175468,-0.644694,-0.367008,0.215664,-0.097321,-0.250617,1.663001,0.982053,0.340152,-9.995978,-0.038148,0.067094,0.000000,-0.032575,0.021677,-0.000000
4.610000,1.596705,1.648811,-1.414272,0.625229,1.241045,-0.173229,-0.645618,-0.369504,0.231790,-0.087434,-0.249305,1.562465,0.994826,-0.060881,-10.042188,-0.038471,0.067303,0.000000,-0.032149,0.020018,-0.000000
4.620000,1.602925,1.661203,-1.415992,0.618769,1.237338,-0.170835,-0.646442,-0.372007,0.246913,-0.077426,-0.251886,1.461976,1.006652,-0.453773,-10.049125,-0.038792,0.067495,0.000000,-0.032116,0.018333,0.000000
4.630000,1.609080,1.673557,-1.417688,0.612301,1.233605,-0.168295,-0.647166,-0.374555,0.261030,-0.067304,-0.258348,1.361608,1.017528,-0.837067,-10.018256,-0.039115,0.067670,0.000000,-0.032480,0.016623,0.000000
4.640000,1.615171,1.685875,-1.419358,0.605826,1.229846,-0.165618,-0.647788,-0.377187,0.274146,-0.057078,-0.268590,1.261732,1.027453,-1.209301,-9.951046,-0.039443,0.067828,0.000000,-0.033231,0.014894,0.000000
4.650000,1.621196,1.698154,-1.421000,0.599345,1.226061,-0.162815,-0.648307,-0.379939,0.286268,-0.046758,-0.282493,1.162703,1.036424,-1.569017,-9.848962,-0.039781,0.067968,0.000000,-0.034363,0.013149,-0.000000
4.660000,1.627157,1.710396,-1.422614,0.592860,1.222247,-0.159896,-0.648723,-0.382850,0.297402,-0.036351,-0.300064,1.064689,1.044376,-1.911220,-9.709042,-0.040132,0.068091,0.000000,-0.035876,0.011392,-0.000000
4.670000,1.633054,1.722599,-1.424198,0.586371,1.218403,-0.156870,-0.649034,-0.385951,0.307567,-0.025871,-0.320825,0.968430,1.051377,-2.238417,-9.537721,-0.040499,0.068196,0.000000,-0.037725,0.009631,-0.000000
4.680000,1.638885,1.734764,-1.425751,0.579880,1.214527,-0.153748,-0.649240,-0.389277,0.316777,-0.015326,-0.344779,0.874032,1.057434,-2.549584,-9.337007,-0.040887,0.068284,0.000000,-0.039912,0.007868,0.000000
4.690000,1.644651,1.746889,-1.427272,0.573387,1.210617,-0.150538,-0.649340,-0.392857,0.325054,-0.004725,-0.371760,0.781781,1.062551,-2.843692,-9.108909,-0.041299,0.068353,0.000000,-0.042419,0.006107,-0.000000
4.700000,1.650353,1.758976,-1.428761,0.566893,1.206669,-0.147250,-0.649335,-0.396722,0.332421,0.005922,-0.401592,0.691939,1.066735,-3.119716,-8.855435,-0.041737,0.068406,0.000000,-0.045231,0.004353,0.000000
4.710000,1.655989,1.771023,-1.430217,0.560400,1.202682,-0.143892,-0.649222,-0.400900,0.338901,0.016609,-0.434263,0.604685,1.069925,-3.372275,-8.576958,-0.042205,0.068441,0.000000,-0.048346,0.002608,-0.000000
4.720000,1.661561,1.783029,-1.431639,0.553909,1.198650,-0.140474,-0.649002,-0.405415,0.344524,0.027320,-0.469167,0.520397,1.072200,-3.605229,-8.277321,-0.042705,0.068458,0.000000,-0.051702,0.000878,-0.000000
4.730000,1.667067,1.794996,-1.433026,0.547421,1.194572,-0.137004,-0.648675,-0.410291,0.349320,0.038050,-0.506300,0.439202,1.073574,-3.818084,-7.958732,-0.043239,0.068458,0.000000,-0.055298,-0.000834,0.000000
4.740000,1.672509,1.806921,-1.434379,0.540936,1.190443,-0.133491,-0.648241,-0.415548,0.353319,0.048789,-0.545460,0.361278,1.074061,-4.010349,-7.623400,-0.043811,0.068441,0.000000,-0.059114,-0.002526,0.000000
4.750000,1.677886,1.818804,-1.435696,0.534456,1.186260,-0.129941,-0.647700,-0.421206,0.356557,0.059528,-0.586437,0.286782,1.073673,-4.181528,-7.273534,-0.044422,0.068408,0.000000,-0.063126,-0.004195,-0.000000
4.760000,1.683198,1.830646,-1.436978,0.527982,1.182018,-0.126362,-0.647051,-0.427284,0.359067,0.070264,-0.629185,0.215884,1.072317,-4.326917,-6.912245,-0.045075,0.068358,0.000000,-0.067330,-0.005837,0.000000
4.770000,1.688446,1.842444,-1.438223,0.521515,1.177713,-0.122762,-0.646294,-0.433794,0.360887,0.080976,-0.673092,0.148612,1.070127,-4.450751,-6.540728,-0.045769,0.068291,0.000000,-0.071661,-0.007451,-0.000000
4.780000,1.693629,1.854200,-1.439433,0.515057,1.173340,-0.119146,-0.645431,-0.440749,0.362052,0.091663,-0.718129,0.085097,1.067130,-4.553050,-6.161080,-0.046508,0.068208,0.000000,-0.076115,-0.009035,0.000000
4.790000,1.698747,1.865911,-1.440606,0.508607,1.168896,-0.115523,-0.644461,-0.448160,0.362601,0.102316,-0.764081,0.025410,1.063353,-4.633838,-5.775398,-0.047292,0.068110,0.000000,-0.080671,-0.010585,0.000000
4.800000,1.703801,1.877577,-1.441743,0.502168,1.164376,-0.111896,-0.643385,-0.456033,0.362573,0.112928,-0.810734,-0.030398,1.058823,-4.693136,-5.385779,-0.048122,0.067997,0.000000,-0.085304,-0.012102,0.000000
4.810000,1.708790,1.889198,-1.442844,0.495740,1.159774,-0.108273,-0.642203,-0.464377,0.362008,0.123494,-0.858005,-0.082187,1.053483,-4.727601,-4.997165,-0.048998,0.067868,0.000000,-0.090007,-0.013583,-0.000000
4.820000,1.713716,1.900773,-1.443909,0.489324,1.155087,-0.104658,-0.640915,-0.473194,0.360942,0.133999,-0.905366,-0.130214,1.047454,-4.741032,-4.608461,-0.049922,0.067725,0.000000,-0.094722,-0.015028,-0.000000
4.830000,1.718577,1.912300,-1.444937,0.482922,1.150309,-0.101056,-0.639523,-0.482485,0.359416,0.144441,-0.952757,-0.174361,1.040773,-4.733866,-4.221419,-0.050893,0.067567,0.000000,-0.099444,-0.016436,-0.000000
4.840000,1.723374,1.923778,-1.445930,0.476534,1.145435,-0.097471,-0.638027,-0.492249,0.357468,0.154812,-0.999976,-0.214654,1.033476,-4.706535,-3.837787,-0.051911,0.067396,0.000000,-0.104151,-0.017805,-0.000000
4.850000,1.728107,1.935208,-1.446887,0.470162,1.140462,-0.093908,-0.636427,-0.502483,0.355136,0.165108,-1.046822,-0.251134,1.025601,-4.659475,-3.459315,-0.052976,0.067211,0.000000,-0.108822,-0.019137,-0.000000
4.860000,1.732777,1.946587,-1.447808,0.463806,1.135384,-0.090369,-0.634725,-0.513184,0.352459,0.175324,-1.093187,-0.283704,1.017144,-4.590961,-3.091774,-0.054087,0.067013,0.000000,-0.113447,-0.020429,-0.000000
4.870000,1.737384,1.957915,-1.448694,0.457468,1.130197,-0.086859,-0.632921,-0.524344,0.349474,0.185451,-1.138676,-0.312817,1.008188,-4.503852,-2.732400,-0.055245,0.066802,0.000000,-0.117983,-0.021684,-0.000000
4.880000,1.741927,1.969191,-1.449545,0.451148,1.124896,-0.083381,-0.631016,-0.535954,0.346215,0.195486,-1.183204,-0.338383,0.998774,-4.398844,-2.382450,-0.056447,0.066578,0.000000,-0.122423,-0.022902,-0.000000
4.890000,1.746407,1.980413,-1.450362,0.444848,1.119476,-0.079936,-0.629011,-0.548004,0.342718,0.205425,-1.226595,-0.360502,0.988945,-4.276638,-2.043183,-0.057693,0.066343,0.000000,-0.126747,-0.024082,0.000000
4.900000,1.750824,1.991580,-1.451144,0.438568,1.113934,-0.076527,-0.626908,-0.560482,0.339016,0.215264,-1.268682,-0.379287,0.978741,-4.137932,-1.715853,-0.058981,0.066096,0.000000,-0.130940,-0.025225,0.000000
4.910000,1.755178,2.002691,-1.451893,0.432310,1.108265,-0.073156,-0.624707,-0.573374,0.335145,0.225001,-1.309338,-0.394687,0.968163,-3.982510,-1.406175,-0.060311,0.065838,0.000000,-0.134989,-0.026331,-0.000000
4.920000,1.759470,2.013745,-1.452607,0.426074,1.102465,-0.069825,-0.622408,-0.586663,0.331132,0.234628,-1.348323,-0.407258,0.957301,-3.812097,-1.110404,-0.061680,0.065569,0.000000,-0.138868,-0.027403,0.000000
4.930000,1.763700,2.024740,-1.453289,0.419862,1.096531,-0.066534,-0.620014,-0.600334,0.327009,0.244146,-1.385532,-0.416944,0.946201,-3.627506,-0.829253,-0.063088,0.065289,0.000000,-0.142567,-0.028442,-0.000000
4.940000,1.767867,2.035675,-1.453938,0.413674,1.090457,-0.063285,-0.617526,-0.614368,0.322803,0.253552,-1.420828,-0.423894,0.934911,-3.429545,-0.563434,-0.064531,0.064999,0.000000,-0.146073,-0.029448,0.000000
4.950000,1.771973,2.046549,-1.454555,0.407512,1.084242,-0.060078,-0.614944,-0.628744,0.318540,0.262844,-1.454081,-0.428266,0.923478,-3.219027,-0.313660,-0.066008,0.064699,0.000000,-0.149374,-0.030422,0.000000
4.960000,1.776018,2.057359,-1.455140,0.401376,1.077882,-0.056914,-0.612269,-0.643442,0.314247,0.272021,-1.485166,-0.430054,0.911945,-2.996849,-0.084909,-0.067518,0.064389,0.000000,-0.152457,-0.031364,-0.000000
4.970000,1.780001,2.068106,-1.455694,0.395267,1.071372,-0.053793,-0.609504,-0.658440,0.309946,0.281083,-1.513978,-0.429830,0.900364,-2.763724,0.126897,-0.069057,0.064070,0.000000,-0.155309,-0.032280,0.000000
4.980000,1.783923,2.078786,-1.456216,0.389186,1.064712,-0.050715,-0.606648,-0.673714,0.305657,0.290028,-1.540407,-0.427573,0.888783,-2.520453,0.321569,-0.070623,0.063742,0.000000,-0.157922,-0.033168,-0.000000
4.990000,1.787785,2.089399,-1.456708,0.383134,1.057897,-0.047680,-0.603703,-0.689239,0.301401,0.298858,-1.564356,-0.423456,0.877249,-2.267836,0.498917,-0.072214,0.063405,0.000000,-0.160286,-0.034031,-0.000000
5.000000,1.791586,2.099944,-1.457170,0.377112,1.050926,-0.044687,-0.600671,-0.704992,0.297194,0.307574,-1.585735,-0.417653,0.865810,-2.006673,0.658752,-0.073828,0.063060,0.000000,-0.162391,-0.034870,0.000000
5.010000,1.795327,2.110417,-1.457602,0.371121,1.043797,-0.041736,-0.597552,-0.720945,0.293054,0.316174,-1.604435,-0.410196,0.854553,-1.738486,0.797237,-0.075461,0.062706,0.000000,-0.164228,-0.035686,-0.000000
5.020000,1.799008,2.120819,-1.458005,0.365161,1.036507,-0.038826,-0.594348,-0.737072,0.288994,0.324664,-1.620449,-0.401604,0.843482,-1.463264,0.918277,-0.077112,0.062344,0.000000,-0.165794,-0.036482,0.000000
5.030000,1.802630,2.131147,-1.458378,0.359234,1.029055,-0.035956,-0.591059,-0.753345,0.285026,0.333044,-1.633679,-0.391888,0.832639,-1.181721,1.022129,-0.078776,0.061974,0.000000,-0.167080,-0.037259,0.000000
5.040000,1.806193,2.141400,-1.458724,0.353340,1.021439,-0.033125,-0.587688,-0.769736,0.281160,0.341317,-1.644065,-0.381218,0.822069,-0.894569,1.109051,-0.080452,0.061597,0.000000,-0.168080,-0.038018,-0.000000
5.050000,1.809697,2.151575,-1.459041,0.347481,1.013660,-0.030332,-0.584233,-0.786216,0.277404,0.349486,-1.651554,-0.369762,0.811813,-0.602518,1.179299,-0.082137,0.061211,0.000000,-0.168788,-0.038762,-0.000000
5.060000,1.813143,2.161672,-1.459331,0.341656,1.005715,-0.027576,-0.580698,-0.802757,0.273768,0.357551,-1.656063,-0.357577,0.802003,-0.307242,1.230357,-0.083827,0.060819,0.000000,-0.169197,-0.039491,0.000000
5.070000,1.816530,2.171689,-1.459593,0.335867,0.997605,-0.024856,-0.577083,-0.819328,0.270254,0.365524,-1.657644,-0.345084,0.792584,-0.008374,1.265595,-0.085520,0.060419,0.000000,-0.169309,-0.040209,0.000000
5.080000,1.819860,2.181624,-1.459828,0.330114,0.989328,-0.022171,-0.573388,-0.835900,0.266867,0.373404,-1.656221,-0.332315,0.783586,0.293491,1.285612,-0.087212,0.060012,0.000000,-0.169117,-0.040916,0.000000
5.090000,1.823133,2.191475,-1.460036,0.324399,0.980887,-0.019519,-0.569615,-0.852442,0.263608,0.381197,-1.651766,-0.319420,0.775042,0.597759,1.291004,-0.088901,0.059597,0.000000,-0.168618,-0.041614,0.000000
5.100000,1.826348,2.201241,-1.460218,0.318722,0.972280,-0.016898,-0.565764,-0.868925,0.260478,0.388907,-1.644260,-0.306542,0.766984,0.903836,1.282367,-0.090584,0.059176,0.000000,-0.167809,-0.042304,-0.000000
5.110000,1.829507,2.210920,-1.460374,0.313084,0.963508,-0.014309,-0.561837,-0.885317,0.257478,0.396533,-1.633651,-0.293746,0.759586,1.210262,1.258498,-0.092256,0.058748,0.000000,-0.166686,-0.042986,0.000000
5.120000,1.832610,2.220511,-1.460505,0.307486,0.954574,-0.011748,-0.557834,-0.901588,0.254603,0.404094,-1.620013,-0.281334,0.752720,1.517415,1.222016,-0.093916,0.058313,0.000000,-0.165253,-0.043666,0.000000
5.130000,1.835657,2.230011,-1.460609,0.301928,0.945477,-0.009216,-0.553755,-0.917707,0.251850,0.411589,-1.603302,-0.269345,0.746401,1.824806,1.173738,-0.095560,0.057871,0.000000,-0.163505,-0.044341,-0.000000
5.140000,1.838649,2.239420,-1.460689,0.296411,0.936220,-0.006711,-0.549602,-0.933643,0.249214,0.419024,-1.583518,-0.257896,0.740643,2.131946,1.114482,-0.097185,0.057422,0.000000,-0.161443,-0.045015,-0.000000
5.150000,1.841586,2.248735,-1.460744,0.290936,0.926805,-0.004232,-0.545375,-0.949367,0.246689,0.426404,-1.560666,-0.247090,0.735462,2.438349,1.045065,-0.098788,0.056966,0.000000,-0.159065,-0.045688,0.000000
5.160000,1.844468,2.257955,-1.460774,0.285504,0.917234,-0.001777,-0.541075,-0.964846,0.244270,0.433727,-1.534733,-0.236992,0.731063,2.742967,0.965475,-0.100366,0.056504,0.000000,-0.156369,-0.046360,-0.000000
5.170000,1.847296,2.267079,-1.460779,0.280115,0.907509,0.000654,-0.536701,-0.980051,0.241947,0.441018,-1.505787,-0.227771,0.727245,3.045939,0.877462,-0.101914,0.056034,0.000000,-0.153362,-0.047034,0.000000
5.180000,1.850070,2.276105,-1.460761,0.274770,0.897634,0.003062,-0.532254,-0.994952,0.239711,0.448274,-1.473821,-0.219468,0.724001,3.346844,0.781945,-0.103432,0.055558,0.000000,-0.150042,-0.047711,0.000000
5.190000,1.852791,2.285031,-1.460718,0.269470,0.887611,0.005449,-0.527735,-1.009518,0.237554,0.455500,-1.438859,-0.212154,0.721320,3.645262,0.679843,-0.104914,0.055075,0.000000,-0.146410,-0.048391,-0.000000
5.200000,1.855460,2.293857,-1.460652,0.264216,0.877445,0.007814,-0.523144,-1.023719,0.235465,0.462702,-1.400926,-0.205890,0.719195,3.940773,0.572077,-0.106359,0.054585,0.000000,-0.142468,-0.049075,0.000000
5.210000,1.858076,2.302580,-1.460562,0.259007,0.867138,0.010158,-0.518481,-1.037526,0.233433,0.469877,-1.360048,-0.200731,0.717843,4.232793,0.459636,-0.107763,0.054088,0.000000,-0.138219,-0.049763,0.000000
5.220000,1.860640,2.311199,-1.460449,0.253846,0.856695,0.012482,-0.513747,-1.050910,0.231446,0.477051,-1.316275,-0.196713,0.717000,4.521085,0.343360,-0.109122,0.053584,0.000000,-0.133666,-0.050458,-0.000000
5.230000,1.863153,2.319713,-1.460312,0.248733,0.846121,0.014787,-0.508940,-1.063842,0.229494,0.484219,-1.269640,-0.193874,0.716630,4.805250,0.224161,-0.110435,0.053073,0.000000,-0.128812,-0.051158,0.000000
5.240000,1.865615,2.328121,-1.460153,0.243668,0.835420,0.017072,-0.504062,-1.076294,0.227565,0.491385,-1.220185,-0.192237,0.716696,5.084888,0.102949,-0.111698,0.052554,0.000000,-0.123662,-0.051865,0.000000
5.250000,1.868027,2.336421,-1.459971,0.238652,0.824597,0.019338,-0.499113,-1.088237,0.225646,0.498554,-1.167958,-0.191819,0.717162,5.359599,-0.019365,-0.112907,0.052029,0.000000,-0.118219,-0.052579,-0.000000
5.260000,1.870388,2.344613,-1.459766,0.233686,0.813657,0.021585,-0.494091,-1.099644,0.223724,0.505720,-1.113019,-0.192659,0.718234,5.629182,-0.141010,-0.114061,0.051496,0.000000,-0.112490,-0.053299,-0.000000
5.270000,1.872700,2.352694,-1.459539,0.228770,0.802606,0.023813,-0.488998,-1.110488,0.221788,0.512909,-1.055403,-0.194675,0.719601,5.893014,-0.262041,-0.115156,0.050956,0.000000,-0.106478,-0.054027,0.000000
5.280000,1.874964,2.360664,-1.459290,0.223906,0.791449,0.026021,-0.483833,-1.120743,0.219827,0.520113,-0.995179,-0.197895,0.721200,6.150670,-0.381651,-0.116190,0.050408,0.000000,-0.100190,-0.054763,-0.000000
5.290000,1.877179,2.368523,-1.459019,0.219094,0.780193,0.028209,-0.478596,-1.130383,0.217827,0.527333,-0.932411,-0.202301,0.722963,6.401726,-0.499035,-0.117159,0.049853,0.000000,-0.093634,-0.055505,0.000000
5.300000,1.879346,2.376268,-1.458726,0.214334,0.768844,0.030377,-0.473287,-1.139383,0.215777,0.534572,-0.867168,-0.207866,0.724824,6.645759,-0.613388,-0.118061,0.049290,0.000000,-0.086815,-0.056255,-0.000000
5.310000,1.881466,2.383899,-1.458412,0.209628,0.757408,0.032525,-0.467905,-1.147719,0.213665,0.541821,-0.799539,-0.214615,0.726945,6.882787,-0.722400,-0.118894,0.048720,0.000000,-0.079743,-0.057010,0.000000
5.320000,1.883539,2.391416,-1.458076,0.204976,0.745892,0.034650,-0.462450,-1.155366,0.211481,0.549101,-0.729558,-0.222366,0.729004,7.111888,-0.826953,-0.119655,0.048142,0.000000,-0.072424,-0.057772,0.000000
5.330000,1.885565,2.398817,-1.457719,0.200379,0.734303,0.036754,-0.456923,-1.162303,0.209214,0.556400,-0.657329,-0.231137,0.730906,7.332583,-0.926426,-0.120342,0.047556,0.000000,-0.064868,-0.058539,-0.000000
5.340000,1.887546,2.406102,-1.457341,0.195838,0.722648,0.038834,-0.451322,-1.168506,0.206855,0.563718,-0.582936,-0.240875,0.732557,7.544394,-1.020198,-0.120952,0.046963,0.000000,-0.057085,-0.059312,-0.000000
5.350000,1.889482,2.413270,-1.456942,0.191353,0.710935,0.040891,-0.445648,-1.173954,0.204394,0.571050,-0.506472,-0.251520,0.733863,7.746841,-1.107646,-0.121483,0.046361,0.000000,-0.049085,-0.060088,0.000000
5.360000,1.891374,2.420320,-1.456523,0.186925,0.699172,0.042922,-0.439901,-1.178629,0.201821,0.578386,-0.428053,-0.263083,0.734915,7.939975,-1.186181,-0.121933,0.045752,0.000000,-0.040879,-0.060867,-0.000000
5.370000,1.893221,2.427253,-1.456084,0.182555,0.687365,0.044927,-0.434080,-1.182509,0.199129,0.585739,-0.347731,-0.275307,0.735411,8.122723,-1.257391,-0.122300,0.045135,0.000000,-0.032477,-0.061649,0.000000
5.380000,1.895025,2.434067,-1.455624,0.178244,0.675524,0.046904,-0.428186,-1.185578,0.196312,0.593092,-0.265635,-0.288205,0.735233,8.294543,-1.320895,-0.122582,0.044510,0.000000,-0.023893,-0.062431,0.000000
5.390000,1.896786,2.440763,-1.455146,0.173992,0.663657,0.048853,-0.422219,-1.187816,0.193363,0.600441,-0.181878,-0.301698,0.734266,8.454891,-1.376313,-0.122777,0.043877,0.000000,-0.015138,-0.063213,0.000000
5.400000,1.898505,2.447340,-1.454647,0.169800,0.651771,0.050771,-0.416177,-1.189210,0.190277,0.607775,-0.096577,-0.315703,0.732392,8.603224,-1.423264,-0.122884,0.043236,0.000000,-0.006226,-0.063993,0.000000
5.410000,1.900182,2.453799,-1.454130,0.165669,0.639875,0.052658,-0.410063,-1.189743,0.187047,0.615080,-0.009874,-0.330222,0.729617,8.739455,-1.459147,-0.122901,0.042587,0.000000,0.002827,-0.064770,0.000000
5.420000,1.901818,2.460138,-1.453594,0.161599,0.627979,0.054511,-0.403876,-1.189403,0.183671,0.622358,0.078147,-0.344956,0.725686,8.862528,-1.486073,-0.122827,0.041931,0.000000,0.012010,-0.065541,0.000000
5.430000,1.903414,2.466358,-1.453040,0.157591,0.616090,0.056331,-0.397616,-1.188177,0.180147,0.629590,0.167331,-0.359913,0.720468,8.971845,-1.503936,-0.122661,0.041267,0.000000,0.021305,-0.066306,-0.000000
5.440000,1.904971,2.472460,-1.452468,0.153647,0.604218,0.058114,-0.391284,-1.186053,0.176473,0.636762,0.257536,-0.375004,0.713831,9.066807,-1.512626,-0.122401,0.040595,0.000000,0.030698,-0.067063,-0.000000
5.450000,1.906488,2.478443,-1.451878,0.149766,0.592372,0.059860,-0.384881,-1.183023,0.172647,0.643861,0.348617,-0.390135,0.705644,9.146814,-1.512034,-0.122047,0.039915,0.000000,0.040171,-0.067808,-0.000000
5.460000,1.907966,2.484307,-1.451271,0.145949,0.580561,0.061566,-0.378407,-1.179078,0.168669,0.650868,0.440411,-0.405302,0.695812,9.211509,-1.499816,-0.121597,0.039228,0.000000,0.049708,-0.068542,0.000000
5.470000,1.909407,2.490054,-1.450647,0.142198,0.568794,0.063232,-0.371864,-1.174213,0.164541,0.657770,0.532783,-0.420200,0.684161,9.260022,-1.478373,-0.121052,0.038534,0.000000,0.059291,-0.069260,-0.000000
5.480000,1.910810,2.495683,-1.450006,0.138512,0.557080,0.064857,-0.365252,-1.168421,0.160266,0.664545,0.625556,-0.434839,0.670555,9.291724,-1.447872,-0.120411,0.037833,0.000000,0.068901,-0.069961,-0.000000
5.490000,1.912177,2.501196,-1.449350,0.134893,0.545428,0.066437,-0.358574,-1.161701,0.155846,0.671174,0.718559,-0.449128,0.654858,9.305986,-1.408476,-0.119674,0.037125,0.000000,0.078520,-0.070643,0.000000
5.500000,1.913508,2.506592,-1.448678,0.131341,0.533849,0.067973,-0.351830,-1.154050,0.151285,0.677635,0.811615,-0.462979,0.636934,9.302178,-1.360352,-0.118841,0.036410,0.000000,0.088128,-0.071302,0.000000
5.510000,1.914804,2.511873,-1.447991,0.127857,0.522350,0.069463,-0.345022,-1.145469,0.146587,0.683906,0.904542,-0.476386,0.616608,9.279644,-1.301657,-0.117912,0.035689,0.000000,0.097708,-0.071938,0.000000
5.520000,1.916066,2.517039,-1.447289,0.124441,0.510942,0.070904,-0.338152,-1.135960,0.141759,0.689960,0.997145,-0.489075,0.593787,9.237786,-1.234811,-0.116887,0.034961,0.000000,0.107234,-0.072545,-0.000000
5.530000,1.917293,2.522092,-1.446573,0.121094,0.499634,0.072297,-0.331223,-1.125528,0.136808,0.695773,1.089231,-0.501056,0.568339,9.175981,-1.160223,-0.115767,0.034228,0.000000,0.116689,-0.073123,-0.000000
5.540000,1.918488,2.527033,-1.445843,0.117817,0.488435,0.073640,-0.324238,-1.114178,0.131741,0.701318,1.180596,-0.512255,0.540133,9.093603,-1.078306,-0.114553,0.033489,0.000000,0.126051,-0.073667,0.000000
5.550000,1.919650,2.531861,-1.445100,0.114609,0.477354,0.074932,-0.317198,-1.101919,0.126566,0.706566,1.271032,-0.522599,0.509036,8.990028,-0.989470,-0.113247,0.032745,0.000000,0.135298,-0.074176,0.000000
5.560000,1.920780,2.536580,-1.444344,0.111473,0.466400,0.076171,-0.310107,-1.088761,0.121291,0.711492,1.360335,-0.532084,0.474835,8.864342,-0.892571,-0.111848,0.031996,0.000000,0.144409,-0.074647,0.000000
5.570000,1.921880,2.541190,-1.443577,0.108407,0.455581,0.077357,-0.302969,-1.074717,0.115927,0.716056,1.448257,-0.540501,0.437491,8.716244,-0.789766,-0.110359,0.031243,0.000000,0.153357,-0.075075,0.000000
5.580000,1.922949,2.545692,-1.442797,0.105414,0.444908,0.078489,-0.295788,-1.059801,0.110485,0.720231,1.534583,-0.547862,0.396882,8.545143,-0.681657,-0.108781,0.030486,0.000000,0.162121,-0.075457,0.000000
5.590000,1.923988,2.550089,-1.442007,0.102492,0.434388,0.079567,-0.288566,-1.044031,0.104974,0.723982,1.619081,-0.554118,0.352885,8.350449,-0.568846,-0.107117,0.029725,0.000000,0.170678,-0.075792,-0.000000
5.600000,1.924999,2.554380,-1.441206,0.099642,0.424030,0.080589,-0.281309,-1.027427,0.099406,0.727277,1.701512,-0.559225,0.305381,8.131573,-0.451935,-0.105369,0.028961,0.000000,0.179003,-0.076075,-0.000000
5.610000,1.925981,2.558570,-1.440396,0.096866,0.413842,0.081555,-0.274022,-1.010009,0.093793,0.730083,1.781649,-0.563182,0.254126,7.887439,-0.330586,-0.103538,0.028195,0.000000,0.187074,-0.076304,-0.000000
5.620000,1.926936,2.562658,-1.439575,0.094162,0.403833,0.082465,-0.266710,-0.991802,0.088147,0.732352,1.859198,-0.565869,0.199135,7.618002,-0.206456,-0.101628,0.027427,0.000000,0.194861,-0.076473,0.000000
5.630000,1.927865,2.566647,-1.438746,0.091532,0.394009,0.083318,-0.259377,-0.972834,0.082480,0.734053,1.933923,-0.567304,0.140300,7.322732,-0.080260,-0.099642,0.026658,0.000000,0.202342,-0.076580,0.000000
5.640000,1.928767,2.570539,-1.437909,0.088975,0.384379,0.084114,-0.252030,-0.953134,0.076805,0.735145,2.005565,-0.567470,0.077514,7.001099,0.047285,-0.097582,0.025888,0.000000,0.209490,-0.076621,-0.000000
5.650000,1.929644,2.574335,-1.437064,0.086491,0.374949,0.084854,-0.244676,-0.932734,0.071135,0.735589,2.073856,-0.566357,0.010672,6.652573,0.175462,-0.095453,0.025118,0.000000,0.216279,-0.076594,0.000000
5.660000,1.930497,2.578038,-1.436212,0.084081,0.365726,0.085537,-0.237321,-0.911669,0.065482,0.735358,2.138551,-0.563971,-0.060676,6.275968,0.303795,-0.093258,0.024349,0.000000,0.222687,-0.076494,0.000000
5.670000,1.931326,2.581650,-1.435354,0.081745,0.356717,0.086164,-0.229972,-0.889976,0.059859,0.734377,2.199311,-0.560294,-0.136253,5.871489,0.431298,-0.091001,0.023582,0.000000,0.228679,-0.076315,0.000000
5.680000,1.932132,2.585173,-1.434489,0.079482,0.347929,0.086734,-0.222636,-0.867696,0.054280,0.732619,2.255886,-0.555350,-0.216124,5.438686,0.557225,-0.088686,0.022817,0.000000,0.234232,-0.076056,0.000000
5.690000,1.932916,2.588610,-1.433619,0.077292,0.339365,0.087249,-0.215322,-0.844873,0.048757,0.730040,2.307989,-0.549157,-0.300355,4.977109,0.680831,-0.086318,0.022055,0.000000,0.239318,-0.075711,0.000000
5.700000,1.933678,2.591962,-1.432744,0.075175,0.331033,0.087710,-0.208038,-0.821552,0.043301,0.726597,2.355331,-0.541744,-0.389010,4.486308,0.801368,-0.083901,0.021298,0.000000,0.243909,-0.075277,-0.000000
5.710000,1.934420,2.595231,-1.431865,0.073131,0.322936,0.088116,-0.200792,-0.797783,0.037926,0.722321,2.397678,-0.533126,-0.484088,3.964276,0.917659,-0.081441,0.020545,0.000000,0.247983,-0.074758,-0.000000
5.720000,1.935141,2.598421,-1.430982,0.071159,0.315078,0.088468,-0.193595,-0.773617,0.032642,0.716987,2.434586,-0.523386,-0.583484,3.412311,1.029443,-0.078943,0.019798,0.000000,0.251498,-0.074131,0.000000
